state,extension,timestamp,gpsCorrelTimestampFlags,gpsCorrelTimestampTow,gpsCorrelTimestampWeekNum,scaledAccelX,scaledAccelY,scaledAccelZ,scaledGyroX,scaledGyroY,scaledGyroZ,estFilterGpsTimeTow,estFilterGpsTimeWeekNum,estOrientQuaternionX,estOrientQuaternionY,estOrientQuaternionZ,estOrientQuaternionW,estPressureAlt,estFilterState,estFilterDynamicsMode,estFilterStatusFlags,estAttitudeUncertQuaternionX,estAttitudeUncertQuaternionY,estAttitudeUncertQuaternionZ,estAttitudeUncertQuaternionW,estAngularRateX,estAngularRateY,estAngularRateZ,estCompensatedAccelX,estCompensatedAccelY,estCompensatedAccelZ
TEST_STATE,0.5,1726608206694919026,4,302.7210083,0,-0.08812074363,-0.02378120273,0.9775394797,0.06326918304,0.07016205788,0.0701797381,,,,,,,,,,,,,,,,,,,,
TEST_STATE,0.5,1726608206695918592,4,302.7219849,0,-0.07835410535,-0.03265824914,0.9797241688,0.05930096284,0.06563688815,0.06511566043,,,,,,,,,,,,,,,,,,,,
TEST_STATE,0.5,1726608206695343693,,,,,,,,,,302.7219849,0,0.0175667759,-0.6481143236,-0.7611420751,-0.01738153398,68.9196167,2,1,0,0.000887878472,0.01245448273,0.01057382859,0.0007861710037,0.07257959992,0.06906661391,0.07038266957,-1.048844218,-0.002767575439,9.716934204
TEST_STATE,0.5,1726608206696916992,4,302.7229919,0,-0.07686312497,-0.02919364348,0.987746954,0.05432686582,0.06124779955,0.06673122197,,,,,,,,,,,,,,,,,,,,
TEST_STATE,0.5,1726608206697914368,4,302.723999,0,-0.08288705349,-0.02006318793,0.9963163733,0.0509060137,0.06075524539,0.06222995371,,,,,,,,,,,,,,,,,,,,
TEST_STATE,0.5,1726608206697341696,,,,,,,,,,302.723999,0,0.01766136661,-0.6481622458,-0.7610992789,-0.01737299375,68.9196167,2,1,0,0.000887878472,0.01245448273,0.01057382859,0.0007861710037,0.05986033008,0.06369576603,0.06158531085,-0.7344365716,-0.3661670089,9.56496048
TEST_STATE,0.5,1726608206698910720,4,302.7250061,0,-0.08194373548,-0.01362215076,1.001256108,0.05221080408,0.06336823851,0.05909745768,,,,,,,,,,,,,,,,,,,,
TEST_STATE,0.5,1726608206699906304,4,302.7260132,0,-0.06953942776,-0.01545563992,0.9941582084,0.04857662693,0.06163593754,0.06073161587,,,,,,,,,,,,,,,,,,,,
TEST_STATE,0.5,1726608206699343360,,,,,,,,,,302.7260132,0,0.01774452068,-0.6482067704,-0.7610595226,-0.01736861654,68.9196167,2,1,0,0.000887878472,0.01245448273,0.01057382859,0.0007861710037,0.05164601281,0.05706385896,0.06071220711,-0.7974560857,-0.2022102624,9.780302048
TEST_STATE,0.5,1726608206700906496,4,302.7269897,0,-0.05545106903,-0.02516128868,0.9834090471,0.0506154187,0.05269483104,0.05790726468,,,,,,,,,,,,,,,,,,,,
TEST_STATE,0.5,1726608206701905664,4,302.7279968,0,-0.0493863672,-0.02457576245,0.9783445001,0.0448352322,0.04811256379,0.05347630754,,,,,,,,,,,,,,,,,,,,
TEST_STATE,0.5,1726608206701342976,,,,,,,,,,302.7279968,0,0.01782361977,-0.6482494473,-0.7610213757,-0.01736645214,68.9196167,2,1,0,0.000887878472,0.01245448273,0.01057382859,0.0007861710037,0.05135402456,0.06039863452,0.05658776313,-0.7011061907,-0.1281952262,9.77742672
TEST_STATE,0.5,1726608206702904064,4,302.7290039,0,-0.04337590188,-0.01109360345,0.9792361259,0.03689111024,0.04693648964,0.05176683143,,,,,,,,,,,,,,,,,,,,
TEST_STATE,0.5,1726608206703901440,4,302.730011,0,-0.04535034671,0.02018518187,0.9878863692,0.03815149516,0.04551272839,0.03828902543,,,,,,,,,,,,,,,,,,,,
TEST_STATE,0.5,1726608206703341056,,,,,,,,,,302.730011,0,0.01789644547,-0.6482884288,-0.7609865665,-0.01736134849,68.9196167,2,1,0,0.000887878472,0.01245448273,0.01057382859,0.0007861710037,0.04823618755,0.04371531308,0.05053249002,-0.4511370361,-0.2723474801,9.56975174
TEST_STATE,0.5,1726608206704897792,4,302.7309875,0,-0.05429322273,0.02967158705,1.005844951,0.03693986684,0.04059016705,0.03034434095,,,,,,,,,,,,,,,,,,,,
TEST_STATE,0.5,1726608206705893120,4,302.7319946,0,-0.0556480661,0.01346863061,1.003409505,0.03900501877,0.04591472447,0.02327905968,,,,,,,,,,,,,,,,,,,,
TEST_STATE,0.5,1726608206705337088,,,,,,,,,,302.7319946,0,0.01795786619,-0.6483203173,-0.7609579563,-0.01735620387,68.9196167,2,1,0,0.000887878472,0.01245448273,0.01057382859,0.0007861710037,0.03709553182,0.04301331192,0.03734382987,-0.4224556088,0.184301123,9.675227165
TEST_STATE,0.5,1726608206706887680,4,302.7330017,0,-0.04342573881,-0.002552434802,0.99588269,0.03755047172,0.0455317013,0.01710256934,,,,,,,,,,,,,,,,,,,,
TEST_STATE,0.5,1726608206707881472,4,302.7340088,0,-0.0227741655,-0.009608251974,0.9831610918,0.03575978056,0.04227779433,0.009392649867,,,,,,,,,,,,,,,,,,,,
TEST_STATE,0.5,1726608206707331584,,,,,,,,,,302.7340088,0,0.01801529713,-0.6483404636,-0.7609395981,-0.01735361852,68.9196167,2,1,0,0.000887878472,0.01245448273,0.01057382859,0.0007861710037,0.03994587064,0.0409966521,0.01918404177,-0.5712243319,0.1905645281,9.900484085
TEST_STATE,0.5,1726608206708874240,4,302.7349854,0,-0.009641625918,-0.005817146972,0.9772910476,0.02972880751,0.03997137398,0.002405296545,,,,,,,,,,,,,,,,,,,,
TEST_STATE,0.5,1726608206709866240,4,302.7359924,0,-0.02243948542,0.02299590781,0.988676548,0.02483903989,0.03323093429,-0.004810519516,,,,,,,,,,,,,,,,,,,,
TEST_STATE,0.5,1726608206709324288,,,,,,,,,,302.7359924,0,0.01807151921,-0.6483486295,-0.7609313726,-0.0173503682,68.9196167,2,1,0,0.000887878472,0.01245448273,0.01057382859,0.0007861710037,0.03732388094,0.04036332294,0.005977582186,-0.2219786942,-0.1316653937,9.640688896
TEST_STATE,0.5,1726608206710857472,4,302.7369995,0,-0.03694875538,0.03373706713,0.9928337932,0.02244870551,0.02953183837,-0.01324618608,,,,,,,,,,,,,,,,,,,,
TEST_STATE,0.5,1726608206711847680,4,302.7380066,0,-0.04057665914,0.03062624484,0.9946379662,0.02554536425,0.02838163078,-0.01800276339,,,,,,,,,,,,,,,,,,,,
TEST_STATE,0.5,1726608206711314944,,,,,,,,,,302.7380066,0,0.01811914518,-0.6483464241,-0.7609320879,-0.01734972931,68.9196167,2,1,0,0.000887878472,0.01245448273,0.01057382859,0.0007861710037,0.02550949156,0.03133769333,-0.008573456667,-0.1562545747,0.1860032082,9.656996727
TEST_STATE,0.5,1726608206712837120,4,302.7390137,0,-0.03269306943,0.03476275876,0.9975935221,0.02349014394,0.02913814783,-0.02840171754,,,,,,,,,,,,,,,,,,,,
TEST_STATE,0.5,1726608206713830144,4,302.7399902,0,-0.02269648947,0.029008938,0.9999761581,0.0252213832,0.03052229434,-0.035710603,,,,,,,,,,,,,,,,,,,,
TEST_STATE,0.5,1726608206713308416,,,,,,,,,,302.7399902,0,0.01815699227,-0.6483336091,-0.7609421611,-0.01734871604,68.9196167,2,1,0,0.000887878472,0.01245448273,0.01057382859,0.0007861710037,0.02592362091,0.02502938733,-0.02267354727,-0.4367482066,0.3394150138,9.763829231
TEST_STATE,0.5,1726608206714822400,4,302.7409973,0,-0.02860370837,0.03458151966,1.002708077,0.02620688453,0.02779322118,-0.04068478197,,,,,,,,,,,,,,,,,,,,
TEST_STATE,0.5,1726608206715813632,4,302.7420044,0,-0.04227254167,0.04668694362,1.007732987,0.02742618136,0.02903201059,-0.04929854721,,,,,,,,,,,,,,,,,,,,
TEST_STATE,0.5,1726608206715300352,,,,,,,,,,302.7420044,0,0.01819348522,-0.6483086348,-0.7609626055,-0.01734678447,68.9196167,2,1,0,0.000887878472,0.01245448273,0.01057382859,0.0007861710037,0.02595438808,0.02812786773,-0.04054258019,-0.215780884,0.3076437116,9.811396599
TEST_STATE,0.5,1726608206716803840,4,302.7430115,0,-0.04624084383,0.04530626535,1.000502467,0.03073861264,0.02971965075,-0.06097241864,,,,,,,,,,,,,,,,,,,,
TEST_STATE,0.5,1726608206717793280,4,302.743988,0,-0.04383528605,0.03956065327,0.9960649014,0.03095203638,0.02290515788,-0.0671652928,,,,,,,,,,,,,,,,,,,,
TEST_STATE,0.5,1726608206717290496,,,,,,,,,,302.743988,0,0.01823099144,-0.6482723951,-0.7609926462,-0.01734403707,68.9196167,2,1,0,0.0008852437604,0.01243659854,0.01058868505,0.0007920396747,0.02922009304,0.02555448562,-0.05216668546,-0.4086359143,0.4536696672,9.882059097
TEST_STATE,0.5,1726608206718781952,4,302.7449951,0,-0.03980438784,0.02443689108,0.9912535548,0.02793486789,0.02315898798,-0.06955780834,,,,,,,,,,,,,,,,,,,,
TEST_STATE,0.5,1726608206719774976,4,302.7460022,0,-0.03108320013,0.00512627326,0.9849218726,0.02738188766,0.02245098352,-0.07220482826,,,,,,,,,,,,,,,,,,,,
TEST_STATE,0.5,1726608206719290112,,,,,,,,,,302.7460022,0,0.01826838031,-0.6482239366,-0.7610331774,-0.01733665168,68.36209106,2,1,0,0.0008852437604,0.01243659854,0.01058868505,0.0007920396747,0.03366935626,0.0219784081,-0.07260587811,-0.4465471208,0.3938858509,9.753396988
TEST_STATE,0.5,1726608206720773120,4,302.7470093,0,-0.02905097976,0.002654180862,0.984354496,0.02377587557,0.02586540952,-0.07729110867,,,,,,,,,,,,,,,,,,,,
TEST_STATE,0.5,1726608206721770240,4,302.7479858,0,-0.03445818648,0.005974275991,0.9922615886,0.02517902292,0.02374549955,-0.08042813838,,,,,,,,,,,,,,,,,,,,
TEST_STATE,0.5,1726608206721288192,,,,,,,,,,302.7479858,0,0.01830323786,-0.6481667161,-0.7610812783,-0.01732814685,68.36209106,2,1,0,0.0008852437604,0.01243659854,0.01058868505,0.0007920396747,0.0282237418,0.02027666382,-0.07533529401,-0.3077813685,0.0374670364,9.655045509
TEST_STATE,0.5,1726608206722766592,4,302.7489929,0,-0.04412233829,0.007204616908,0.9968982935,0.02217113785,0.02374330163,-0.08261656761,,,,,,,,,,,,,,,,,,,,
TEST_STATE,0.5,1726608206723761920,4,302.75,0,-0.04663366079,0.008444501087,1.001470566,0.01821920276,0.02512164786,-0.0830502063,,,,,,,,,,,,,,,,,,,,
TEST_STATE,0.5,1726608206723283968,,,,,,,,,,302.75,0,0.01833566278,-0.6481050849,-0.7611330748,-0.01732314378,68.36209106,2,1,0,0.0008852437604,0.01243659854,0.01058868505,0.0007920396747,0.02547801659,0.02283375151,-0.0843270272,-0.3219408095,0.04495496303,9.714901924
TEST_STATE,0.5,1726608206724756224,4,302.7510071,0,-0.04876549169,-0.001729766838,0.99912256,0.02050775103,0.0231226515,-0.08592637628,,,,,,,,,,,,,,,,,,,,
TEST_STATE,0.5,1726608206725750016,4,302.7520142,0,-0.043526683,-0.01628068462,0.9908986092,0.0219860319,0.01847889274,-0.08453118056,,,,,,,,,,,,,,,,,,,,
TEST_STATE,0.5,1726608206725277952,,,,,,,,,,302.7520142,0,0.01836606488,-0.6480392814,-0.7611883879,-0.0173222106,68.36209106,2,1,0,0.0008852437604,0.01243659854,0.01058868505,0.0007920396747,0.01968156919,0.0224867817,-0.08651784062,-0.4830139279,0.08443969488,9.8273983
TEST_STATE,0.5,1726608206726743040,4,302.7529907,0,-0.04422317073,-0.01541232783,0.9861146808,0.01599443518,0.01776881702,-0.0820139274,,,,,,,,,,,,,,,,,,,,
TEST_STATE,0.5,1726608206727735040,4,302.7539978,0,-0.05295116454,-0.01373216137,0.9872092009,0.01478405297,0.01169539429,-0.07991589606,,,,,,,,,,,,,,,,,,,,
TEST_STATE,0.5,1726608206727270656,,,,,,,,,,302.7539978,0,0.01839351282,-0.6479719281,-0.7612451315,-0.01731970534,68.36209106,2,1,0,0.0008852437604,0.01243659854,0.01058868505,0.0007920396747,0.02414764091,0.01630252227,-0.08855004609,-0.4428370297,-0.1654892713,9.724719048
TEST_STATE,0.5,1726608206728726016,4,302.7550049,0,-0.06475555152,-0.01309015881,0.9933857322,0.01078980602,0.01339910831,-0.07850904018,,,,,,,,,,,,,,,,,,,,
TEST_STATE,0.5,1726608206729716224,4,302.756012,0,-0.07609882206,-0.01715132967,0.9986429811,0.007033864036,0.01580891013,-0.07501579821,,,,,,,,,,,,,,,,,,,,
TEST_STATE,0.5,1726608206729261568,,,,,,,,,,302.756012,0,0.01841473393,-0.6479063034,-0.7613005638,-0.01731503569,68.36209106,2,1,0,0.0008852437604,0.01243659854,0.01058868505,0.0007920396747,0.01479852945,0.01018910855,-0.0823456645,-0.5058928728,-0.1349524558,9.66433239
TEST_STATE,0.5,1726608206730705664,4,302.7569885,0,-0.07627107203,-0.02851453796,0.9939529896,0.00683957804,0.01356881578,-0.0722027421,,,,,,,,,,,,,,,,,,,,
TEST_STATE,0.5,1726608206731698688,4,302.7579956,0,-0.07644970715,-0.03200519085,0.9916595817,0.005345973186,0.009716383182,-0.06671252102,,,,,,,,,,,,,,,,,,,,
TEST_STATE,0.5,1726608206731255296,,,,,,,,,,302.7579956,0,0.01842980646,-0.647844851,-0.7613524795,-0.01731546223,68.36209106,2,1,0,0.0008852437604,0.01243659854,0.01058868505,0.0007920396747,0.008146676235,0.01352963969,-0.07805250585,-0.7629154921,-0.1589598954,9.803255081
TEST_STATE,0.5,1726608206732690944,4,302.7590027,0,-0.08360648155,-0.02646446414,0.9959412813,0.008520882577,0.009412499145,-0.06229706109,,,,,,,,,,,,,,,,,,,,
TEST_STATE,0.5,1726608206733682432,4,302.7600098,0,-0.08809071779,-0.02304060198,0.993252635,0.006502408069,0.01410757285,-0.06675390899,,,,,,,,,,,,,,,,,,,,
TEST_STATE,0.5,1726608206733247232,,,,,,,,,,302.7600098,0,0.01844145358,-0.6477882862,-0.7614002824,-0.01731771231,68.36209106,2,1,0,0.0008852437604,0.01243659854,0.01058868505,0.0007920396747,0.007257248741,0.007319515571,-0.0696644634,-0.7499313354,-0.3431150317,9.714304924
TEST_STATE,0.5,1726608206734673152,4,302.7609863,0,-0.09252034873,-0.008668049239,0.9950379133,0.006416180171,0.01082673762,-0.06116784737,,,,,,,,,,,,,,,,,,,,
TEST_STATE,0.5,1726608206735662848,4,302.7619934,0,-0.09183319658,-0.007092895452,0.9908772707,0.009564450942,0.0121849319,-0.06241738051,,,,,,,,,,,,,,,,,,,,
TEST_STATE,0.5,1726608206735237376,,,,,,,,,,302.7619934,0,0.01845260896,-0.6477357745,-0.7614446282,-0.0173184257,68.36209106,2,1,0,0.0008852437604,0.01243659854,0.01058868505,0.0007920396747,0.009581541643,0.01077402476,-0.06738850474,-0.8782287836,-0.2147554904,9.758636475
TEST_STATE,0.5,1726608206736651520,4,302.7630005,0,-0.09151097387,-0.01768037304,0.9973304272,0.0097332187,0.008834171109,-0.05688015372,,,,,,,,,,,,,,,,,,,,
TEST_STATE,0.5,1726608206737644544,4,302.7640076,0,-0.09088055044,-0.01691146195,0.9950314164,0.01083961502,0.01256161369,-0.05169379339,,,,,,,,,,,,,,,,,,,,
TEST_STATE,0.5,1726608206737231360,,,,,,,,,,302.7640076,0,0.01846537739,-0.6476857066,-0.7614869475,-0.01731816679,68.36209106,2,1,0,0.0008852437604,0.01243659854,0.01058868505,0.0007920396747,0.01066675689,0.008510051295,-0.06326210499,-0.9156256914,-0.0274965819,9.730173111
TEST_STATE,0.5,1726608206738636800,4,302.7650146,0,-0.09168052673,-0.01502354257,1.004920602,0.009258860722,0.008419203572,-0.04708250239,,,,,,,,,,,,,,,,,,,,
TEST_STATE,0.5,1726608206739628032,4,302.7659912,0,-0.09863325208,-0.01337852143,1.000962257,0.006167297252,0.01106166095,-0.04437280819,,,,,,,,,,,,,,,,,,,,
TEST_STATE,0.5,1726608206739228928,,,,,,,,,,302.7659912,0,0.01847828366,-0.6476408243,-0.7615248561,-0.01731595397,68.36209106,2,1,0,0.0008852437604,0.01243659854,0.01058868505,0.0007920396747,0.01239409298,0.008434017189,-0.05372339487,-0.8913522363,-0.2002636939,9.782165527
TEST_STATE,0.5,1726608206740624128,4,302.7669983,0,-0.1072793305,-0.007462037727,1.003498077,0.008497950621,0.01778589003,-0.04216599464,,,,,,,,,,,,,,,,,,,,
TEST_STATE,0.5,1726608206741619456,4,302.7680054,0,-0.09690231085,-0.004303489812,0.9968016744,0.01241914649,0.01911943592,-0.04139856994,,,,,,,,,,,,,,,,,,,,
TEST_STATE,0.5,1726608206741224960,,,,,,,,,,302.7680054,0,0.0184898302,-0.6476024389,-0.761557281,-0.01731409878,68.36209106,2,1,0,0.0008852437604,0.01243659854,0.01058868505,0.0007920396747,0.007927602157,0.006879224442,-0.04624715447,-0.9573698044,-0.1282388568,9.854007721
TEST_STATE,0.5,1726608206742614016,4,302.7690125,0,-0.08445971459,-0.005406079814,0.9941900373,0.01416185405,0.01495375391,-0.03687765822,,,,,,,,,,,,,,,,,,,,
TEST_STATE,0.5,1726608206743607552,4,302.769989,0,-0.08395664394,-0.009083029814,0.9930542707,0.007930774242,0.01286388375,-0.03526852652,,,,,,,,,,,,,,,,,,,,
TEST_STATE,0.5,1726608206743218944,,,,,,,,,,302.769989,0,0.018505916,-0.647567749,-0.7615863681,-0.01731478423,68.36209106,2,1,0,0.0008852437604,0.01243659854,0.01058868505,0.0007920396747,0.01415035687,0.01863374189,-0.04368540272,-0.9957685471,-0.02935774997,9.795133591
TEST_STATE,0.5,1726608206744600320,4,302.7709961,0,-0.07941311598,-0.01275561657,0.9898732305,0.009996085428,0.0133595271,-0.03530122712,,,,,,,,,,,,,,,,,,,,
TEST_STATE,0.5,1726608206745592064,4,302.7720032,0,-0.07750670612,-0.003079446033,1.001261353,0.01084381156,0.01572080143,-0.03416385874,,,,,,,,,,,,,,,,,,,,
TEST_STATE,0.5,1726608206745211136,,,,,,,,,,302.7720032,0,0.01852419041,-0.6475365758,-0.7616124153,-0.01731495187,68.36209106,2,1,0,0.0008852437604,0.01243659854,0.01058868505,0.0007920396747,0.01131938212,0.009533856995,-0.03697168082,-0.7853863239,-0.08596872538,9.73240757
TEST_STATE,0.5,1726608206746583040,4,302.7730103,0,-0.07450535148,-0.00232724566,1.006875515,0.01361771859,0.0159730278,-0.03095781058,,,,,,,,,,,,,,,,,,,,
TEST_STATE,0.5,1726608206747572992,4,302.7739868,0,-0.06295650452,-0.01763274521,1.005827546,0.01597961597,0.01794910245,-0.02628239989,,,,,,,,,,,,,,,,,,,,
TEST_STATE,0.5,1726608206747202048,,,,,,,,,,302.7739868,0,0.01854004338,-0.647507906,-0.761636436,-0.01731367595,68.36209106,2,1,0,0.0008852437604,0.01243659854,0.01058868505,0.0007920396747,0.01304897573,0.01306576841,-0.03723076358,-0.749297142,-0.05890108645,9.788799286
TEST_STATE,0.5,1726608206748562176,4,302.7749939,0,-0.05275771022,-0.0241717957,1.001398087,0.01453905366,0.01761412807,-0.02152708918,,,,,,,,,,,,,,,,,,,,
TEST_STATE,0.5,1726608206749555456,4,302.776001,0,-0.03846685961,-0.0331989564,0.990537703,0.01443347428,0.01556877512,-0.01544605009,,,,,,,,,,,,,,,,,,,,
TEST_STATE,0.5,1726608206749195776,,,,,,,,,,302.776001,0,0.01856036298,-0.6474821568,-0.7616578937,-0.01731159352,68.36209106,2,1,0,0.0008852437604,0.01243659854,0.01058868505,0.0007920396747,0.01813522354,0.01528657228,-0.02896120586,-0.6286022067,-0.1432966441,9.883192062
TEST_STATE,0.5,1726608206750547968,4,302.7770081,0,-0.03376162052,-0.0359211117,0.9887049794,0.01088860817,0.01643349603,-0.01877404191,,,,,,,,,,,,,,,,,,,,
TEST_STATE,0.5,1726608206751539456,4,302.7780151,0,-0.03685005754,-0.01945786178,0.9888958931,0.005622014403,0.008982281201,-0.01715139672,,,,,,,,,,,,,,,,,,,,
TEST_STATE,0.5,1726608206751187712,,,,,,,,,,302.7780151,0,0.01858185418,-0.6474637389,-0.7616730928,-0.01730844751,68.36209106,2,1,0,0.0008852437604,0.01243659854,0.01058868505,0.0007920396747,0.01569588482,0.01344999485,-0.01788709685,-0.3708563149,-0.3298992813,9.719380379
TEST_STATE,0.5,1726608206752530176,4,302.7789917,0,-0.03476569429,-0.01400665659,0.9917064309,0.002233254258,0.008755440824,-0.01830280572,,,,,,,,,,,,,,,,,,,,
TEST_STATE,0.5,1726608206753519872,4,302.7799988,0,-0.03364932537,-0.01222133916,0.9916930795,-0.001733550802,0.003969647456,-0.01957515813,,,,,,,,,,,,,,,,,,,,
TEST_STATE,0.5,1726608206753177856,,,,,,,,,,302.7799988,0,0.01859716699,-0.6474484205,-0.7616857886,-0.01730712876,68.36209106,2,1,0,0.0008852437604,0.01243659854,0.01058868505,0.0007920396747,0.007152296137,0.008227583021,-0.02135538682,-0.341180712,-0.2286524326,9.691696167
TEST_STATE,0.5,1726608206754508544,4,302.7810059,0,-0.03247139975,-0.01019206084,0.9897597432,-5.15E-05,-6.05E-05,-0.02179658599,,,,,,,,,,,,,,,,,,,,
TEST_STATE,0.5,1726608206755501824,4,302.7820129,0,-0.02948515117,0.000594352372,0.9970949292,-0.0005377217894,0.002551784739,-0.02003546618,,,,,,,,,,,,,,,,,,,,
TEST_STATE,0.5,1726608206755172352,,,,,,,,,,302.7820129,0,0.01860301755,-0.6474315524,-0.7616999745,-0.01730839722,68.36209106,2,1,0,0.0008852437604,0.01243659854,0.01058868505,0.0007920396747,-0.0003897310235,0.002383207669,-0.02256033011,-0.3254684806,-0.1060179397,9.733983994
TEST_STATE,0.5,1726608206756494592,4,302.7829895,0,-0.03480087593,0.01685870439,1.010550499,-0.00260538375,0.003431868274,-0.0219555255,,,,,,,,,,,,,,,,,,,,
TEST_STATE,0.5,1726608206757486592,4,302.7839966,0,-0.04023859277,0.02984280139,1.01035285,-0.003299396951,0.009240057319,-0.02415177599,,,,,,,,,,,,,,,,,,,,
TEST_STATE,0.5,1726608206757164544,,,,,,,,,,302.7839966,0,0.01860336959,-0.6474138498,-0.7617149949,-0.01730855368,68.36209106,2,1,0,0.0008852437604,0.01243659854,0.01058868505,0.0007920396747,0.001787811634,-0.001589430729,-0.02391238883,-0.2907955945,-0.007054455578,9.759056091
TEST_STATE,0.5,1726608206758477824,4,302.7850037,0,-0.04174369201,0.035584867,1.003214598,0.00261013722,0.001799433958,-0.02122038044,,,,,,,,,,,,,,,,,,,,
TEST_STATE,0.5,1726608206759468032,4,302.7860107,0,-0.03801713884,0.03557221219,0.9987001419,0.008314888924,0.009221278131,-0.02633015625,,,,,,,,,,,,,,,,,,,,
TEST_STATE,0.5,1726608206759160064,,,,,,,,,,302.7860107,0,0.0186045263,-0.6473943591,-0.7617315054,-0.01731061377,68.36209106,2,1,0,0.0008852437604,0.01243659854,0.01058868505,0.0007920396747,-0.002129683271,0.006081137806,-0.027213756,-0.4015137255,0.3202920854,9.950531006
TEST_STATE,0.5,1726608206760462592,4,302.7869873,0,-0.03192519769,0.02469159663,0.9961056113,0.007372138556,0.0131167192,-0.02879690938,,,,,,,,,,,,,,,,,,,,
TEST_STATE,0.5,1726608206761456128,4,302.7879944,0,-0.02778840438,0.0176521726,0.9922325015,0.01077153534,0.01195043884,-0.03034491278,,,,,,,,,,,,,,,,,,,,
TEST_STATE,0.5,1726608206761154048,,,,,,,,,,302.7879944,0,0.01861038618,-0.6473734379,-0.7617491484,-0.01731077395,68.19298553,2,1,0,0.0008852437604,0.01243659854,0.01058868505,0.0007920396747,0.01086122449,0.003120592562,-0.02731851488,-0.3841594458,0.3667972684,9.77966404
TEST_STATE,0.5,1726608206762448640,4,302.7890015,0,-0.02807384729,0.01881865785,0.9938976765,0.007675630972,0.009233026765,-0.02988476492,,,,,,,,,,,,,,,,,,,,
TEST_STATE,0.5,1726608206763440384,4,302.7900085,0,-0.03676964343,0.02316919155,1.000670314,0.006392327137,0.009174152277,-0.03271980211,,,,,,,,,,,,,,,,,,,,
TEST_STATE,0.5,1726608206763145984,,,,,,,,,,302.7900085,0,0.01862249896,-0.647349894,-0.7617689371,-0.01730738021,68.19298553,2,1,0,0.0008852437604,0.01243659854,0.01058868505,0.0007920396747,0.0115555767,0.01101852674,-0.03369869292,-0.2608648539,0.151687175,9.729278564
TEST_STATE,0.5,1726608206764431360,4,302.7909851,0,-0.04663140699,0.02590682171,1.006311655,0.008195017464,0.01266698632,-0.03210319206,,,,,,,,,,,,,,,,,,,,
TEST_STATE,0.5,1726608206765421568,4,302.7919922,0,-0.04641465098,0.02462274395,1.007396221,0.01166856475,0.0148454383,-0.0321912989,,,,,,,,,,,,,,,,,,,,
TEST_STATE,0.5,1726608206765136640,,,,,,,,,,302.7919922,0,0.01863447949,-0.6473234296,-0.7617911696,-0.01730630919,68.19298553,2,1,0,0.0008852437604,0.01243659854,0.01058868505,0.0007920396747,0.007341798861,0.005936110392,-0.03490807489,-0.3459831178,0.2230988741,9.806354523
TEST_STATE,0.5,1726608206766410752,4,302.7929993,0,-0.04051317647,0.01635170542,1.003754854,0.008810461499,0.01632737368,-0.03009514138,,,,,,,,,,,,,,,,,,,,
TEST_STATE,0.5,1726608206767404288,4,302.7940063,0,-0.03256474063,0.007432432845,1.000165939,0.01028153673,0.01617605239,-0.03140707687,,,,,,,,,,,,,,,,,,,,
TEST_STATE,0.5,1726608206767130624,,,,,,,,,,302.7940063,0,0.01864784211,-0.6472964883,-0.7618137598,-0.01730527729,68.19298553,2,1,0,0.0008852437604,0.01243659854,0.01058868505,0.0007920396747,0.01331305038,0.01317765564,-0.03482886404,-0.4863453805,0.2523037791,9.894859314
TEST_STATE,0.5,1726608206768397056,4,302.7950134,0,-0.03253212199,0.004661227576,0.9926256537,0.01262821443,0.01613375731,-0.03714023903,,,,,,,,,,,,,,,,,,,,
TEST_STATE,0.5,1726608206769388800,4,302.79599,0,-0.0362405926,0.00560798496,0.9936251044,0.01387098897,0.01405883115,-0.03644262627,,,,,,,,,,,,,,,,,,,,
TEST_STATE,0.5,1726608206769122560,,,,,,,,,,302.79599,0,0.01866552234,-0.6472700834,-0.7618357539,-0.01730561629,68.19298553,2,1,0,0.0008852437604,0.01243659854,0.01058868505,0.0007920396747,0.01080626342,0.01429149322,-0.0333513245,-0.3150918484,0.06295960397,9.803304672
TEST_STATE,0.5,1726608206770379520,4,302.7969971,0,-0.04212145135,0.00193440821,0.9968442917,0.01117136981,0.01207828987,-0.03282605484,,,,,,,,,,,,,,,,,,,,
TEST_STATE,0.5,1726608206771369216,4,302.7980042,0,-0.04482536018,-0.01156216115,1.001162529,0.009782012552,0.01338143274,-0.03402012214,,,,,,,,,,,,,,,,,,,,
TEST_STATE,0.5,1726608206771112704,,,,,,,,,,302.7980042,0,0.01868361235,-0.6472411752,-0.7618598938,-0.01730458625,68.19298553,2,1,0,0.0008852437604,0.01243659854,0.01058868505,0.0007920396747,0.01609392092,0.01203858852,-0.04124414176,-0.3486880064,0.04465970397,9.718815804
TEST_STATE,0.5,1726608206772358144,4,302.7990112,0,-0.03888966143,-0.02496157959,0.9985386133,0.0069006267,0.01426773984,-0.02942357212,,,,,,,,,,,,,,,,,,,,
TEST_STATE,0.5,1726608206773351680,4,302.7999878,0,-0.03626300022,-0.03245650604,0.9941475391,0.009306568652,0.01299472898,-0.02275618538,,,,,,,,,,,,,,,,,,,,
TEST_STATE,0.5,1726608206773106944,,,,,,,,,,302.7999878,0,0.01870012097,-0.6472114921,-0.7618847489,-0.01730220392,68.19298553,2,1,0,0.0008852437604,0.01243659854,0.01058868505,0.0007920396747,0.01087690145,0.01013047621,-0.03550182283,-0.4531272054,-0.1008078009,9.820405006
TEST_STATE,0.5,1726608206774344448,4,302.8009949,0,-0.03861483932,-0.03703234717,0.9886884689,0.004202777985,0.009536744095,-0.01632826775,,,,,,,,,,,,,,,,,,,,
TEST_STATE,0.5,1726608206775336192,4,302.802002,0,-0.05123335496,-0.02726403996,0.9903896451,-0.0002299905755,0.006590042263,-0.01635461114,,,,,,,,,,,,,,,,,,,,
TEST_STATE,0.5,1726608206775099136,,,,,,,,,,302.802002,0,0.01871433482,-0.6471879482,-0.7619044185,-0.01730182953,68.19298553,2,1,0,0.0008852437604,0.01243659854,0.01058868505,0.0007920396747,0.009654035792,0.01112436503,-0.02535430156,-0.3417696655,-0.3467613757,9.748889923
TEST_STATE,0.5,1726608206776327168,4,302.803009,0,-0.06011068821,-0.0121533554,0.9952638149,0.001779460581,0.004680296406,-0.0159682855,,,,,,,,,,,,,,,,,,,,
TEST_STATE,0.5,1726608206777317120,4,302.8039856,0,-0.06582151353,-0.009601135738,0.9975419044,0.0004915416939,0.005920946132,-0.01474816538,,,,,,,,,,,,,,,,,,,,
TEST_STATE,0.5,1726608206777089536,,,,,,,,,,302.8039856,0,0.0187229272,-0.6471715569,-0.7619181275,-0.01730307937,68.19298553,2,1,0,0.0008852437604,0.01243659854,0.01058868505,0.0007920396747,0.0006525783101,0.003640955547,-0.01715359464,-0.487282604,-0.2990629673,9.692333221
TEST_STATE,0.5,1726608206778306048,4,302.8049927,0,-0.07052647322,-0.01430696994,0.9985991716,0.0009838613914,0.007033633068,-0.01492519397,,,,,,,,,,,,,,,,,,,,
TEST_STATE,0.5,1726608206779299584,4,302.8059998,0,-0.07419679314,-0.02023994923,0.9991081953,0.00464496389,0.01083435491,-0.0114028668,,,,,,,,,,,,,,,,,,,,
TEST_STATE,0.5,1726608206779083264,,,,,,,,,,302.8059998,0,0.01872624457,-0.6471581459,-0.7619292736,-0.01730404049,68.19298553,2,1,0,0.0008852437604,0.01243659854,0.01058868505,0.0007920396747,0.003066943027,0.002703869483,-0.01769672334,-0.6630249023,-0.05153240636,9.793700218
TEST_STATE,0.5,1726608206780297984,4,302.8070068,0,-0.07556704432,-0.02437872067,0.9987446666,0.004587544128,0.01167883538,-0.009378170595,,,,,,,,,,,,,,,,,,,,
TEST_STATE,0.5,1726608206781295616,4,302.8080139,0,-0.08018034697,-0.02115144581,1.001153946,0.008006051183,0.01183513459,-0.009414480999,,,,,,,,,,,,,,,,,,,,
TEST_STATE,0.5,1726608206781081088,,,,,,,,,,302.8080139,0,0.01873296499,-0.6471455097,-0.7619398236,-0.017304454,68.19298553,2,1,0,0.0008852437604,0.01243659854,0.01058868505,0.0007920396747,0.005838262383,0.008114205673,-0.01494903397,-0.7357718945,-0.2026012242,9.800297737
TEST_STATE,0.5,1726608206782292480,4,302.8089905,0,-0.08780309558,-0.01854922995,1.004741788,0.009404322132,0.01237380877,-0.006164925173,,,,,,,,,,,,,,,,,,,,
TEST_STATE,0.5,1726608206783288320,4,302.8099976,0,-0.09113817662,-0.01767940633,1.003812909,0.01163724903,0.01497883722,-0.004409009591,,,,,,,,,,,,,,,,,,,,
TEST_STATE,0.5,1726608206783077120,,,,,,,,,,302.8099976,0,0.01874434203,-0.6471350789,-0.7619484067,-0.01730478555,68.19298553,2,1,0,0.0008852437604,0.01243659854,0.01058868505,0.0007920396747,0.009068433195,0.009691772051,-0.01161324792,-0.7823575139,-0.2260931879,9.812539101
TEST_STATE,0.5,1726608206784283136,4,302.8110046,0,-0.08509105444,-0.02479480207,0.9970453978,0.00692057237,0.01692478545,-0.001916515408,,,,,,,,,,,,,,,,,,,,
TEST_STATE,0.5,1726608206785277184,4,302.8120117,0,-0.07879857719,-0.03305478394,0.9900079966,0.005142059177,0.01072636247,0.003432402154,,,,,,,,,,,,,,,,,,,,
TEST_STATE,0.5,1726608206785071616,,,,,,,,,,302.8120117,0,0.0187598262,-0.6471278071,-0.7619543076,-0.01730351895,68.19298553,2,1,0,0.0008852437604,0.01243659854,0.01058868505,0.0007920396747,0.01337840594,0.01229321957,-0.006543519441,-0.9116146564,-0.1668011844,9.856899261
TEST_STATE,0.5,1726608206786270464,4,302.8129883,0,-0.076536946,-0.03045431711,0.9881061316,0.006798217539,0.009972438216,0.00575832976,,,,,,,,,,,,,,,,,,,,
TEST_STATE,0.5,1726608206787262976,4,302.8139954,0,-0.07955677807,-0.02062667534,0.9990730286,0.004512740765,0.01087239198,0.006591147278,,,,,,,,,,,,,,,,,,,,
TEST_STATE,0.5,1726608206787064320,,,,,,,,,,302.8139954,0,0.018774461,-0.6471251249,-0.7619562745,-0.01730356365,68.19298553,2,1,0,0.0008852437604,0.01243659854,0.01058868505,0.0007920396747,0.005665609147,0.01008819696,0.0004041013308,-0.7650816441,-0.3316536546,9.700076103
TEST_STATE,0.5,1726608206788254464,4,302.8150024,0,-0.08588492125,-0.01078948285,1.008536339,0.006134747062,0.01390586514,0.009936491027,,,,,,,,,,,,,,,,,,,,
TEST_STATE,0.5,1726608206789244928,4,302.8160095,0,-0.09378666431,-0.007280953694,1.009798408,0.01342978887,0.01712622307,0.008457652293,,,,,,,,,,,,,,,,,,,,
TEST_STATE,0.5,1726608206789054976,,,,,,,,,,302.8160095,0,0.0187855754,-0.6471266747,-0.7619546652,-0.0173045136,68.19298553,2,1,0,0.0008852437604,0.01243659854,0.01058868505,0.0007920396747,0.007156929001,0.00808512792,0.00433035614,-0.7677468061,-0.2116721272,9.772082329
TEST_STATE,0.5,1726608206790234880,4,302.8169861,0,-0.0892579332,-0.01483442821,1.003997207,0.01211761218,0.02037104778,0.00773550244,,,,,,,,,,,,,,,,,,,,
TEST_STATE,0.5,1726608206791228672,4,302.8179932,0,-0.07675936073,-0.02411621995,0.9888198972,0.01232479513,0.01960808784,0.0110332882,,,,,,,,,,,,,,,,,,,,
TEST_STATE,0.5,1726608206791048704,,,,,,,,,,302.8179932,0,0.01880146377,-0.647130549,-0.7619509697,-0.01730373316,68.19298553,2,1,0,0.0008852437604,0.01243659854,0.01058868505,0.0007920396747,0.01432241872,0.01512293518,0.006941348314,-0.9254108071,-0.04693970084,9.930030823
TEST_STATE,0.5,1726608206792221440,4,302.8190002,0,-0.01252241433,0.0594483912,0.9956550598,0.01058438048,0.02104140632,0.02186587825,,,,,,,,,,,,,,,,,,,,
TEST_STATE,0.5,1726608206793213184,4,302.8200073,0,0.2088443339,0.2877700925,0.9860745668,-0.002278497443,0.02234201133,0.0512996465,,,,,,,,,,,,,,,,,,,,
TEST_STATE,0.5,1726608206793040896,,,,,,,,,,302.8200073,0,0.01882338338,-0.6471354365,-0.7619462609,-0.01730381697,68.19298553,2,1,0,0.0008852437604,0.01243659854,0.01058868505,0.0007920396747,0.01357124746,0.01839579269,0.007354407571,-0.7608853579,-0.2435417026,9.705945015
TEST_STATE,0.5,1726608206794204160,4,302.8210144,0,0.330271244,0.3045500219,0.9049088359,-0.001550341258,0.01383109298,0.07077856362,,,,,,,,,,,,,,,,,,,,
TEST_STATE,0.5,1726608206795194112,4,302.821991,0,0.0888261646,0.1550223082,0.9935324788,-0.01014890708,0.009890409186,0.06459335238,,,,,,,,,,,,,,,,,,,,
TEST_STATE,0.5,1726608206795031040,,,,,,,,,,302.821991,0,0.01884332672,-0.6471555233,-0.7619285583,-0.01731016114,68.19298553,2,1,0,0.0008852437604,0.01243659854,0.01058868505,0.0007920396747,0.00120638404,0.0201781299,0.04655012116,1.854152918,2.676089764,9.708493233
TEST_STATE,0.5,1726608206796183040,4,302.822998,0,0.1984838694,0.138173297,1.070939779,-0.01476091053,0.007263908163,0.05811004341,,,,,,,,,,,,,,,,,,,,
TEST_STATE,0.5,1726608206797176576,4,302.8240051,0,0.2402492017,0.3744692802,0.9894318581,-0.007887489162,0.002779747359,0.06012361497,,,,,,,,,,,,,,,,,,,,
TEST_STATE,0.5,1726608206797025024,,,,,,,,,,302.8240051,0,0.0188523531,-0.6471993923,-0.7618908286,-0.01731945947,68.19298553,2,1,0,0.0008852437604,0.01243659854,0.01058868505,0.0007920396747,-0.006653039716,0.005513494834,0.06906764209,1.680344224,1.839040041,9.331956863
TEST_STATE,0.5,1726608206798169600,4,302.8250122,0,0.002041876316,0.09519034624,1.078365088,-0.008000623435,-0.003692723811,0.1050864533,,,,,,,,,,,,,,,,,,,,
TEST_STATE,0.5,1726608206799161600,4,302.8259888,0,-0.02584885433,-0.07877911627,0.9435182214,-0.02498034574,-0.0139130028,0.1524254233,,,,,,,,,,,,,,,,,,,,
TEST_STATE,0.5,1726608206799017216,,,,,,,,,,302.8259888,0,0.01885063574,-0.6472467184,-0.7618505359,-0.01732612215,68.19298553,2,1,0,0.0008852437604,0.01243659854,0.01058868505,0.0007920396747,-0.008902580477,0.0003746929578,0.05484422296,2.623917818,3.198681116,10.08986759
TEST_STATE,0.5,1726608206800158464,4,302.8269958,0,0.08767460287,0.318584621,1.013693452,-0.03781613708,-0.01059751771,0.1747913659,,,,,,,,,,,,,,,,,,,,
TEST_STATE,0.5,1726608206801154304,4,302.8280029,0,0.04599067196,0.1897317767,0.9170187712,-0.0349220261,-0.01457024924,0.1984587461,,,,,,,,,,,,,,,,,,,,
TEST_STATE,0.5,1726608206801013504,,,,,,,,,,302.8280029,0,0.01883688569,-0.6473271847,-0.7617824078,-0.01733002067,68.26696777,2,1,0,0.0008852437604,0.01243659854,0.01058868505,0.0007920396747,-0.02022947371,-0.01650020294,0.1552866697,-0.9473245144,-1.334398746,9.770632744
TEST_STATE,0.5,1726608206802149120,4,302.82901,0,-0.1409187913,-0.02548448741,0.957141161,-0.04715389013,-0.008197416551,0.233403042,,,,,,,,,,,,,,,,,,,,
TEST_STATE,0.5,1726608206803142912,4,302.8299866,0,-0.04132130742,0.2251190692,1.037642956,-0.05078267679,-0.005237769336,0.2501750886,,,,,,,,,,,,,,,,,,,,
TEST_STATE,0.5,1726608206803008000,,,,,,,,,,302.8299866,0,0.01880909316,-0.6474627256,-0.7616677284,-0.01733855158,68.26696777,2,1,0,0.0008852437604,0.01243659854,0.01058868505,0.0007920396747,-0.03783189133,-0.0151767889,0.1984280646,0.8796337843,3.330616713,9.384185791
TEST_STATE,0.5,1726608206804135936,4,302.8309937,0,-0.00813832134,0.2655025721,1.028426766,-0.04052424803,-0.0004638875835,0.2608453035,,,,,,,,,,,,,,,,,,,,
TEST_STATE,0.5,1726608206805127936,4,302.8320007,0,-0.09118623286,0.09836569428,0.9880737066,-0.02956843376,0.00136413367,0.271910578,,,,,,,,,,,,,,,,,,,,
TEST_STATE,0.5,1726608206805000192,,,,,,,,,,302.8320007,0,0.01877572946,-0.6476365924,-0.7615202069,-0.0173617173,68.26696777,2,1,0,0.0008852437604,0.01243659854,0.01058868505,0.0007920396747,-0.05231527612,-0.006130851805,0.2554010451,-1.166164756,1.089335799,10.15760422
TEST_STATE,0.5,1726608206806119424,4,302.8330078,0,-0.1122843027,0.1372210085,0.9870241284,-0.0302599594,0.005642882083,0.2697970569,,,,,,,,,,,,,,,,,,,,
TEST_STATE,0.5,1726608206807109888,4,302.8340149,0,-0.1173668504,0.1112624407,1.010330081,-0.02663440257,0.005749656353,0.2522471547,,,,,,,,,,,,,,,,,,,,
TEST_STATE,0.5,1726608206806990848,,,,,,,,,,302.8340149,0,0.01875247248,-0.6478375793,-0.7613493204,-0.01738489419,68.26696777,2,1,0,0.0008852437604,0.01243659854,0.01058868505,0.0007920396747,-0.02659193799,0.0001681717113,0.2704467177,-0.642634213,1.388489842,9.732827187
TEST_STATE,0.5,1726608206808099584,4,302.8349915,0,-0.112455897,0.04331027716,1.002200365,-0.02505703457,0.0146477744,0.2416185439,,,,,,,,,,,,,,,,,,,,
TEST_STATE,0.5,1726608206809093376,4,302.8359985,0,-0.2345068455,-0.0160652101,1.122611046,-0.0352730304,0.01987991296,0.2319690734,,,,,,,,,,,,,,,,,,,,
TEST_STATE,0.5,1726608206808984576,,,,,,,,,,302.8359985,0,0.01874189265,-0.6480368376,-0.7611795068,-0.01740152203,68.26696777,2,1,0,0.0008852437604,0.01243659854,0.01058868505,0.0007920396747,-0.02581152692,0.004708391614,0.2519132197,-1.207792282,1.258653641,9.863149643
TEST_STATE,0.5,1726608206810086400,4,302.8370056,0,-0.2557528019,-0.1290260255,1.171231747,-0.05010040477,0.025454849,0.2205049545,,,,,,,,,,,,,,,,,,,,
TEST_STATE,0.5,1726608206811078400,4,302.8380127,0,-0.1337678134,-0.03932285309,1.098501325,-0.05504718423,0.02711768262,0.2014472634,,,,,,,,,,,,,,,,,,,,
TEST_STATE,0.5,1726608206810976768,,,,,,,,,,302.8380127,0,0.01873675361,-0.648219645,-0.7610234618,-0.01742653735,68.26696777,2,1,0,0.0008852437604,0.01243659854,0.01058868505,0.0007920396747,-0.03121320531,0.01937768422,0.227489233,-2.066921949,-0.2638934553,10.76913357
TEST_STATE,0.5,1726608206812069376,4,302.8389893,0,-0.09445213526,0.04545843601,0.9927119017,-0.04472070932,0.01559349708,0.1732584983,,,,,,,,,,,,,,,,,,,,
TEST_STATE,0.5,1726608206813059328,4,302.8399963,0,-0.1389641762,-0.1189361364,0.8726331592,-0.02735903859,-0.00171591714,0.1517853737,,,,,,,,,,,,,,,,,,,,
TEST_STATE,0.5,1726608206812967168,,,,,,,,,,302.8399963,0,0.0187291652,-0.6483821273,-0.7608842254,-0.01747095026,68.26696777,2,1,0,0.0008852437604,0.01243659854,0.01058868505,0.0007920396747,-0.05716641992,0.02620612085,0.1984108835,-1.595492482,-0.8980616927,11.0539732
TEST_STATE,0.5,1726608206814048768,4,302.8410034,0,-0.1999023408,-0.1637874395,0.8397845626,-0.01893569157,-0.005527461879,0.1359380931,,,,,,,,,,,,,,,,,,,,
TEST_STATE,0.5,1726608206815042816,4,302.8420105,0,-0.1800523698,-0.1259647906,0.8276549578,-0.009011850692,-0.01344057731,0.1109844968,,,,,,,,,,,,,,,,,,,,
TEST_STATE,0.5,1726608206814961408,,,,,,,,,,302.8420105,0,0.01871355623,-0.6485128403,-0.7607722282,-0.01750619896,68.26696777,2,1,0,0.0008852437604,0.01243659854,0.01058868505,0.0007920396747,-0.02552444115,-0.004622800276,0.1438642591,-1.160706282,-0.6087993979,8.441338539
TEST_STATE,0.5,1726608206816035840,4,302.8429871,0,-0.1682531089,-0.1788335741,0.8725484014,-0.007758944761,-0.012279341,0.08964028955,,,,,,,,,,,,,,,,,,,,
TEST_STATE,0.5,1726608206817028096,4,302.8439941,0,-0.1669941694,-0.211432144,0.9716289639,-0.00976932887,-0.01921990328,0.06093439087,,,,,,,,,,,,,,,,,,,,
TEST_STATE,0.5,1726608206816953856,,,,,,,,,,302.8439941,0,0.01869770512,-0.6486090422,-0.7606906295,-0.01750944555,68.26696777,2,1,0,0.0008852437604,0.01243659854,0.01058868505,0.0007920396747,-0.006431861781,-0.01559981611,0.1076241434,-1.991301417,-1.442688584,8.035596848
TEST_STATE,0.5,1726608206818019328,4,302.8450012,0,-0.2114080042,-0.2474686503,1.051239848,-0.01944223046,-0.0282961037,0.01381044462,,,,,,,,,,,,,,,,,,,,
TEST_STATE,0.5,1726608206819009536,4,302.8460083,0,-0.2748292685,-0.3634344339,1.041905284,-0.02605287358,-0.0360997282,-0.0242584534,,,,,,,,,,,,,,,,,,,,
TEST_STATE,0.5,1726608206818944000,,,,,,,,,,302.8460083,0,0.01868115738,-0.6486719251,-0.760637641,-0.01750159822,68.26696777,2,1,0,0.0008852437604,0.01243659854,0.01058868505,0.0007920396747,-0.007303428836,-0.01997304708,0.05650605261,-1.603056192,-2.180396557,9.492023468
TEST_STATE,0.5,1726608206820004352,4,302.8469849,0,-0.2933518887,-0.3943689466,1.002692103,-0.03143579885,-0.03637273237,-0.04916378856,,,,,,,,,,,,,,,,,,,,
TEST_STATE,0.5,1726608206820998144,4,302.8479919,0,-0.2795801759,-0.3645581603,0.9768505096,-0.0358957015,-0.04106106237,-0.07834743708,,,,,,,,,,,,,,,,,,,,
TEST_STATE,0.5,1726608206820938240,,,,,,,,,,302.8479919,0,0.01864767633,-0.6486808658,-0.7606309652,-0.01749471575,68.26696777,2,1,0,0.0008852437604,0.01243659854,0.01058868505,0.0007920396747,-0.02622887492,-0.03995478153,-0.03519157693,-2.720774174,-3.469956398,10.48274136
TEST_STATE,0.5,1726608206821991424,4,302.848999,0,-0.2626153827,-0.4219902158,0.9640553594,-0.0359784998,-0.04401224107,-0.1020178795,,,,,,,,,,,,,,,,,,,,
TEST_STATE,0.5,1726608206822983680,4,302.8500061,0,-0.2377652526,-0.3905464709,0.9929150939,-0.04922662675,-0.04114747047,-0.118847169,,,,,,,,,,,,,,,,,,,,
TEST_STATE,0.5,1726608206822930432,,,,,,,,,,302.8500061,0,0.01859531738,-0.6486368775,-0.7606698275,-0.01749234647,68.26696777,2,1,0,0.0008852437604,0.01243659854,0.01058868505,0.0007920396747,-0.03509697691,-0.04267995432,-0.08382251859,-2.824089289,-3.724785805,9.503267288
TEST_STATE,0.5,1726608206823974912,4,302.8510132,0,-0.1350640357,-0.2406985611,0.9633466601,-0.05573619157,-0.0513825044,-0.1541296542,,,,,,,,,,,,,,,,,,,,
TEST_STATE,0.5,1726608206824965376,4,302.8519897,0,-0.0515704453,-0.2468439788,0.9277204275,-0.05398678035,-0.06914582849,-0.1886182576,,,,,,,,,,,,,,,,,,,,
TEST_STATE,0.5,1726608206824920832,,,,,,,,,,302.8519897,0,0.01853411272,-0.6485584974,-0.7607380748,-0.01749638468,68.26696777,2,1,0,0.0008852437604,0.01243659854,0.01058868505,0.0007920396747,-0.04514407367,-0.04499109834,-0.1261738688,-2.322999954,-4.065267563,9.645806313
TEST_STATE,0.5,1726608206825954816,4,302.8529968,0,-0.1789839417,-0.2617429197,1.034396887,-0.06383826584,-0.07350058854,-0.2152924538,,,,,,,,,,,,,,,,,,,,
TEST_STATE,0.5,1726608206826948608,4,302.8540039,0,-0.1210151613,-0.02042278647,0.9814329743,-0.06571459025,-0.07880328596,-0.2283754796,,,,,,,,,,,,,,,,,,,,
TEST_STATE,0.5,1726608206826915072,,,,,,,,,,302.8540039,0,0.01845458709,-0.6484376788,-0.7608428001,-0.01749954559,68.26696777,2,1,0,0.0008852437604,0.01243659854,0.01058868505,0.0007920396747,-0.05467502028,-0.07156031579,-0.196432516,-0.3338778615,-1.942023754,9.069012642
TEST_STATE,0.5,1726608206827941632,4,302.855011,0,0.02434042096,-0.06833831966,0.849259913,-0.0576910004,-0.09019395709,-0.2344110459,,,,,,,,,,,,,,,,,,,,
TEST_STATE,0.5,1726608206828933632,4,302.8559875,0,-0.159773767,-0.2317810208,1.067673206,-0.05693919957,-0.08809290826,-0.2656748295,,,,,,,,,,,,,,,,,,,,
TEST_STATE,0.5,1726608206828907520,,,,,,,,,,302.8559875,0,0.01835313626,-0.6482751369,-0.7609837651,-0.01750010252,68.26696777,2,1,0,0.0008852437604,0.01243659854,0.01058868505,0.0007920396747,-0.06680765748,-0.0816097036,-0.2373389751,-1.687731743,-0.6767627597,10.0519228
TEST_STATE,0.5,1726608206829925120,4,302.8569946,0,-0.1291024089,0.2057168335,1.03454566,-0.05201963708,-0.08295907825,-0.2978877425,,,,,,,,,,,,,,,,,,,,
TEST_STATE,0.5,1726608206830915584,4,302.8580017,0,-0.06046976149,-0.0604108423,0.9636971951,-0.03865773231,-0.08711796999,-0.2890209556,,,,,,,,,,,,,,,,,,,,
TEST_STATE,0.5,1726608206830897920,,,,,,,,,,302.8580017,0,0.01824296452,-0.6480867267,-0.7611470819,-0.01749314927,68.26696777,2,1,0,0.0008852437604,0.01243659854,0.01058868505,0.0007920396747,-0.05281990021,-0.09448440373,-0.2647654712,-0.7851145267,-2.13132,9.668554306
TEST_STATE,0.5,1726608206831905024,4,302.8590088,0,-0.3112332821,-0.3950641155,1.104447365,-0.0448054038,-0.08355274051,-0.2875694335,,,,,,,,,,,,,,,,,,,,
TEST_STATE,0.5,1726608206832899072,4,302.8599854,0,-0.09227782488,0.313777864,0.9532496333,-0.0401680246,-0.07631735504,-0.3288236558,,,,,,,,,,,,,,,,,,,,
TEST_STATE,0.5,1726608206832892160,,,,,,,,,,302.8599854,0,0.01813951135,-0.6478728056,-0.7613321543,-0.01747398451,68.26696777,2,1,0,0.0008852437604,0.01243659854,0.01058868505,0.0007920396747,-0.03781779483,-0.0871122852,-0.303735435,-0.6195269227,1.247397423,9.473474503
TEST_STATE,0.5,1726608206833892096,4,302.8609924,0,-0.101601392,0.01142686605,0.986575067,-0.02602506988,-0.07534869015,-0.3237056434,,,,,,,,,,,,,,,,,,,,
TEST_STATE,0.5,1726608206834884096,4,302.8619995,0,-0.2367500365,-0.491119802,1.011973023,-0.03086004034,-0.07159473002,-0.3189907074,,,,,,,,,,,,,,,,,,,,
TEST_STATE,0.5,1726608206834884608,,,,,,,,,,302.8619995,0,0.01804522239,-0.6476360559,-0.7615361214,-0.01745600626,68.26696777,2,1,0,0.0008852437604,0.01243659854,0.01058868505,0.0007920396747,-0.04126521572,-0.07888091356,-0.3237160742,-2.077714205,0.76945889,10.05692768
TEST_STATE,0.5,1726608206835875328,4,302.8630066,0,-0.1156847551,0.3496783376,1.024225235,-0.03811893985,-0.05404227972,-0.3411434293,,,,,,,,,,,,,,,,,,,,
TEST_STATE,0.5,1726608206836865536,4,302.8640137,0,-0.03652073443,0.07750847936,1.02320683,-0.02765013836,-0.05108568445,-0.3074867427,,,,,,,,,,,,,,,,,,,,
TEST_STATE,0.5,1726608206836874752,,,,,,,,,,302.8640137,0,0.01796018705,-0.6473924518,-0.7617457509,-0.01743697003,68.26696777,2,1,0,0.0008852437604,0.01243659854,0.01058868505,0.0007920396747,-0.02377804369,-0.0743522197,-0.3210680783,-2.110243559,-4.864566803,9.982844353
TEST_STATE,0.5,1726608206837854976,4,302.8649902,0,0.005402266979,-0.3531725407,0.9199755788,-0.02257676423,-0.05823644251,-0.2945875525,,,,,,,,,,,,,,,,,,,,
TEST_STATE,0.5,1726608206838849536,4,302.8659973,0,-0.07759961486,0.3439304829,1.104373217,-0.02848666161,-0.04849392548,-0.3339451551,,,,,,,,,,,,,,,,,,,,
TEST_STATE,0.5,1726608206838869248,,,,,,,,,,302.8659973,0,0.01789034531,-0.6471484303,-0.7619549036,-0.01742355898,68.26696777,2,1,0,0.0008852437604,0.01243659854,0.01058868505,0.0007920396747,-0.03016081452,-0.04841965809,-0.3235031068,-0.1211963445,3.869600534,10.07428646
TEST_STATE,0.5,1726608206839848704,4,302.8670044,0,0.08389826119,0.1117419899,0.9710579515,-0.02249144763,-0.0570590049,-0.3136038184,,,,,,,,,,,,,,,,,,,,
TEST_STATE,0.5,1726608206840846848,4,302.8680115,0,0.0883802399,-0.2224917114,0.9057993889,-0.0298997853,-0.06450863928,-0.2716867626,,,,,,,,,,,,,,,,,,,,
TEST_STATE,0.5,1726608206840867840,,,,,,,,,,302.8680115,0,0.01782776415,-0.6469025612,-0.7621653676,-0.01741659641,68.26696777,2,1,0,0.0008852437604,0.01243659854,0.01058868505,0.0007920396747,-0.02409596369,-0.05492389947,-0.325538218,-0.4821301103,0.7863485217,10.17939377
TEST_STATE,0.5,1726608206841844224,4,302.868988,0,0.06011655182,0.2040497363,1.055715799,-0.04413719103,-0.06756677479,-0.30248335,,,,,,,,,,,,,,,,,,,,
TEST_STATE,0.5,1726608206842840576,4,302.8699951,0,0.2019380927,0.1856858879,0.9699738622,-0.04142837599,-0.07027050853,-0.3240234852,,,,,,,,,,,,,,,,,,,,
TEST_STATE,0.5,1726608206842864128,,,,,,,,,,302.8699951,0,0.01775971986,-0.6466748714,-0.762360394,-0.01740079559,68.10842896,2,1,0,0.0008852437604,0.01243659854,0.01058868505,0.0007920396747,-0.02494427934,-0.068265073,-0.2756776214,1.362724543,-2.311194897,8.583000183
TEST_STATE,0.5,1726608206843836160,4,302.8710022,0,0.09296647459,-0.08692745864,1.005229592,-0.04085038602,-0.07922988385,-0.3063381612,,,,,,,,,,,,,,,,,,,,
TEST_STATE,0.5,1726608206844830720,4,302.8720093,0,0.008214406669,0.04478408396,1.070029616,-0.04786045104,-0.07061770558,-0.3092674017,,,,,,,,,,,,,,,,,,,,
TEST_STATE,0.5,1726608206844858624,,,,,,,,,,302.8720093,0,0.01767799258,-0.6464447975,-0.762557745,-0.01738704368,68.10842896,2,1,0,0.0008852437604,0.01243659854,0.01058868505,0.0007920396747,-0.04475044087,-0.07313658297,-0.3327625692,1.639485359,3.185126781,10.13293457
TEST_STATE,0.5,1726608206845824256,4,302.8729858,0,0.09163995087,0.1185246781,1.045202136,-0.03604185581,-0.06654099375,-0.2955153883,,,,,,,,,,,,,,,,,,,,
TEST_STATE,0.5,1726608206846817280,4,302.8739929,0,0.114336215,0.03900375962,1.000032067,-0.02558777109,-0.06573390216,-0.2728973329,,,,,,,,,,,,,,,,,,,,
TEST_STATE,0.5,1726608206846851584,,,,,,,,,,302.8739929,0,0.0175861232,-0.6462033391,-0.7627647519,-0.01737813279,68.10842896,2,1,0,0.0008852437604,0.01243659854,0.01058868505,0.0007920396747,-0.04470103979,-0.0774178654,-0.3059556782,-0.1086114496,-0.6464350224,10.48798943
TEST_STATE,0.5,1726608206847811328,4,302.875,0,0.007886864245,0.04742215201,1.013154984,-0.02913443185,-0.05046650767,-0.2894687653,,,,,,,,,,,,,,,,,,,,
TEST_STATE,0.5,1726608206848804608,4,302.8760071,0,0.03900033981,0.08297451586,0.9981560111,-0.01954021491,-0.04321872815,-0.2871292531,,,,,,,,,,,,,,,,,,,,
TEST_STATE,0.5,1726608206848844800,,,,,,,,,,302.8760071,0,0.01750444621,-0.6459834576,-0.7629532814,-0.0173620414,68.10842896,2,1,0,0.0008852437604,0.01243659854,0.01058868505,0.0007920396747,-0.02202356979,-0.0669669807,-0.2754791677,1.341222763,0.7543594241,9.809951782
TEST_STATE,0.5,1726608206849796864,4,302.8770142,0,0.0978628844,0.1190541983,0.9792081118,-0.0194404237,-0.04443813115,-0.2638848126,,,,,,,,,,,,,,,,,,,,
TEST_STATE,0.5,1726608206850790912,4,302.8779907,0,-0.01403403282,0.1141796038,1.041695595,-0.0224410668,-0.03458245099,-0.2719228566,,,,,,,,,,,,,,,,,,,,
TEST_STATE,0.5,1726608206850839040,,,,,,,,,,302.8779907,0,0.01744409278,-0.6457668543,-0.7631382346,-0.01734812558,68.10842896,2,1,0,0.0008852437604,0.01243659854,0.01058868505,0.0007920396747,-0.0207101889,-0.04205967858,-0.2956790328,-0.005259800702,0.7766450644,9.85625267
TEST_STATE,0.5,1726608206851784192,4,302.8789978,0,-0.02581499144,0.1041412577,1.043875933,-0.01487307623,-0.02031662501,-0.2568525374,,,,,,,,,,,,,,,,,,,,
TEST_STATE,0.5,1726608206852776448,4,302.8800049,0,0.05646309629,0.1512438059,1.052898765,-0.001641310751,-0.01708774269,-0.2291688323,,,,,,,,,,,,,,,,,,,,
TEST_STATE,0.5,1726608206852831232,,,,,,,,,,302.8800049,0,0.01739504002,-0.6455536485,-0.7633199096,-0.01734239981,68.10842896,2,1,0,0.0008852437604,0.01243659854,0.01058868505,0.0007920396747,-0.02016224712,-0.03914492577,-0.2659133673,0.2454858273,1.241041064,10.0450573
TEST_STATE,0.5,1726608206853767936,4,302.881012,0,0.004664283246,0.1719602793,1.054755569,0.008773793466,0.002618733793,-0.2249534577,,,,,,,,,,,,,,,,,,,,
TEST_STATE,0.5,1726608206854758656,4,302.8819885,0,-0.01454781555,0.1230462119,1.061381459,0.0293548815,0.0276111383,-0.2051900476,,,,,,,,,,,,,,,,,,,,
TEST_STATE,0.5,1726608206854821632,,,,,,,,,,302.8819885,0,0.01736337133,-0.6453641653,-0.7634810209,-0.01733675972,68.10842896,2,1,0,0.0008852437604,0.01243659854,0.01058868505,0.0007920396747,6.54E-05,-0.01551750861,-0.2322514951,0.3703428805,1.367928028,10.31613827
TEST_STATE,0.5,1726608206855748864,4,302.8829956,0,0.01463858411,0.1464411467,1.075224876,0.0525438413,0.04507900774,-0.1769622415,,,,,,,,,,,,,,,,,,,,
TEST_STATE,0.5,1726608206856743424,4,302.8840027,0,0.007543377113,0.1470527649,1.075311899,0.06594698876,0.06320034713,-0.175166145,,,,,,,,,,,,,,,,,,,,
TEST_STATE,0.5,1726608206856816384,,,,,,,,,,302.8840027,0,0.01737380773,-0.6451948285,-0.7636238933,-0.01733257249,68.10842896,2,1,0,0.0008852437604,0.01243659854,0.01058868505,0.0007920396747,0.0306330286,0.02695892751,-0.2102888972,-0.2701582909,1.358519554,10.40258408
TEST_STATE,0.5,1726608206857736960,4,302.8850098,0,0.03954898939,0.04449641705,1.032657862,0.08125606179,0.07545080781,-0.1465045214,,,,,,,,,,,,,,,,,,,,
TEST_STATE,0.5,1726608206858729472,4,302.8859863,0,0.05293936282,-0.007990688086,1.020040035,0.0878732726,0.07301815599,-0.1064382344,,,,,,,,,,,,,,,,,,,,
TEST_STATE,0.5,1726608206858809088,,,,,,,,,,302.8859863,0,0.01743819751,-0.6450482011,-0.7637465,-0.01732550375,68.10842896,2,1,0,0.0008852437604,0.01243659854,0.01058868505,0.0007920396747,0.07259508967,0.06308402866,-0.1693571359,0.1777156144,1.514045477,10.58826447
TEST_STATE,0.5,1726608206859726592,4,302.8869934,0,0.05318587646,-0.08273049444,1.007700205,0.07899215072,0.07695857435,-0.09749718755,,,,,,,,,,,,,,,,,,,,
TEST_STATE,0.5,1726608206860722688,4,302.8880005,0,0.09301190078,-0.1430124044,1.015497565,0.0767165944,0.08483702689,-0.0644043684,,,,,,,,,,,,,,,,,,,,
TEST_STATE,0.5,1726608206860805632,,,,,,,,,,302.8880005,0,0.01754200831,-0.6449398398,-0.7638360262,-0.01730911434,68.10842896,2,1,0,0.0008852437604,0.01243659854,0.01058868505,0.0007920396747,0.09324607998,0.07497538626,-0.1074445099,0.5951965451,-0.3049721718,9.892502785
TEST_STATE,0.5,1726608206861718016,4,302.8890076,0,0.1012231484,-0.1534987837,1.008997798,0.07926858962,0.0809494257,-0.01430244371,,,,,,,,,,,,,,,,,,,,
TEST_STATE,0.5,1726608206862712576,4,302.8900146,0,0.1018336266,-0.2387275845,1.008522868,0.06728839129,0.0815731734,0.01492361911,,,,,,,,,,,,,,,,,,,,
TEST_STATE,0.5,1726608206862799872,,,,,,,,,,302.8900146,0,0.0176551044,-0.6448690891,-0.7638934851,-0.01729674265,68.10842896,2,1,0,0.0008852437604,0.01243659854,0.01058868505,0.0007920396747,0.0760050416,0.08227602392,-0.07042071223,0.8419303298,-1.528378606,9.906209946
TEST_STATE,0.5,1726608206863706368,4,302.8909912,0,0.1231336594,-0.2852822244,0.98983109,0.06161487848,0.07832480967,0.06525300443,,,,,,,,,,,,,,,,,,,,
TEST_STATE,0.5,1726608206864699136,4,302.8919983,0,0.1399945766,-0.2379808277,0.9694889188,0.04916970059,0.06202157959,0.11146231,,,,,,,,,,,,,,,,,,,,
TEST_STATE,0.5,1726608206864792320,,,,,,,,,,302.8919983,0,0.01776356064,-0.6448481083,-0.7639086246,-0.01729226671,68.10842896,2,1,0,0.0008852437604,0.01243659854,0.01058868505,0.0007920396747,0.0719794333,0.07783837616,0.0227116514,1.023187757,-2.222002745,9.870783806
TEST_STATE,0.5,1726608206865691136,4,302.8930054,0,0.1388843209,-0.2227735221,0.9564127922,0.03218664974,0.04875659943,0.1278911978,,,,,,,,,,,,,,,,,,,,
TEST_STATE,0.5,1726608206866682112,4,302.8940125,0,0.09454084933,-0.2075602561,0.9835571051,0.02161507308,0.0406194292,0.1567810327,,,,,,,,,,,,,,,,,,,,
TEST_STATE,0.5,1726608206866788864,,,,,,,,,,302.8940125,0,0.01785776578,-0.6448988914,-0.7638636231,-0.01728888229,68.10842896,2,1,0,0.0008852437604,0.01243659854,0.01058868505,0.0007920396747,0.05132713914,0.06156564131,0.1162370145,1.409319639,-2.563408375,9.485332489
TEST_STATE,0.5,1726608206867677440,4,302.894989,0,0.04576212168,-0.1606403589,1.002131104,0.01841653697,0.03511840105,0.1876585186,,,,,,,,,,,,,,,,,,,,
TEST_STATE,0.5,1726608206868671744,4,302.8959961,0,0.003482066095,-0.1343186051,1.01474297,0.01304135565,0.0448003076,0.200941354,,,,,,,,,,,,,,,,,,,,
TEST_STATE,0.5,1726608206868783104,,,,,,,,,,302.8959961,0,0.01792011596,-0.645000577,-0.7637762427,-0.01729058847,68.10842896,2,1,0,0.0008852437604,0.01243659854,0.01058868505,0.0007920396747,0.01983188093,0.0354915373,0.15391168,1.002676845,-2.015124559,9.556215286
TEST_STATE,0.5,1726608206869665280,4,302.8970032,0,-0.04425029084,-0.12450324,1.031885386,0.02239321545,0.05435355753,0.2324382216,,,,,,,,,,,,,,,,,,,,
TEST_STATE,0.5,1726608206870657792,4,302.8980103,0,-0.08323270082,-0.09842003882,1.041359067,0.03255784512,0.05830053985,0.2555204332,,,,,,,,,,,,,,,,,,,,
TEST_STATE,0.5,1726608206870775552,,,,,,,,,,302.8980103,0,0.0179627724,-0.6451368928,-0.7636599541,-0.01729817316,68.10842896,2,1,0,0.0008852437604,0.01243659854,0.01058868505,0.0007920396747,0.01470154151,0.03890632838,0.2055067718,-0.04279926047,-1.217661977,9.986739159
TEST_STATE,0.5,1726608206871649536,4,302.8989868,0,-0.1133449599,-0.07522931695,1.030716658,0.03729186207,0.07273838669,0.2531263828,,,,,,,,,,,,,,,,,,,,
TEST_STATE,0.5,1726608206872640256,4,302.8999939,0,-0.1418753415,-0.04647450149,1.023120642,0.05214772001,0.08169046044,0.2692199945,,,,,,,,,,,,,,,,,,,,
TEST_STATE,0.5,1726608206872766208,,,,,,,,,,302.8999939,0,0.01802003756,-0.6453127861,-0.7635098696,-0.01730621606,68.10842896,2,1,0,0.0008852437604,0.01243659854,0.01058868505,0.0007920396747,0.03538963571,0.05824077502,0.2585024536,-0.8957852125,-0.9810005426,10.24887753
TEST_STATE,0.5,1726608206873629952,4,302.901001,0,-0.1627966613,-0.02089506201,1.012897253,0.05703225359,0.08401917666,0.2841199934,,,,,,,,,,,,,,,,,,,,
TEST_STATE,0.5,1726608206874624256,4,302.9020081,0,-0.1760646254,-0.008745906875,1.007688522,0.05602318048,0.09103969485,0.2801600099,,,,,,,,,,,,,,,,,,,,
TEST_STATE,0.5,1726608206874760704,,,,,,,,,,302.9020081,0,0.01810659841,-0.6455097198,-0.7633411884,-0.01731324755,68.10842896,2,1,0,0.0008852437604,0.01243659854,0.01058868505,0.0007920396747,0.05265694857,0.08227612823,0.2626840174,-1.434502482,-0.4345977306,10.01370144
TEST_STATE,0.5,1726608206875617792,4,302.9030151,0,-0.1814089715,0.01326648518,1.018251061,0.06400716305,0.1003191769,0.2867768109,,,,,,,,,,,,,,,,,,,,
TEST_STATE,0.5,1726608206876610304,4,302.9039917,0,-0.1850813925,0.03835691512,1.030930042,0.07908304036,0.1063021496,0.2858265638,,,,,,,,,,,,,,,,,,,,
TEST_STATE,0.5,1726608206876753152,,,,,,,,,,302.9039917,0,0.01821254194,-0.6457153559,-0.7631644607,-0.01732051186,68.10842896,2,1,0,0.0008852437604,0.01243659854,0.01058868505,0.0007920396747,0.05946297944,0.0881215483,0.2827724814,-1.768277884,-0.0275727082,9.859417915
TEST_STATE,0.5,1726608206877601792,4,302.9049988,0,-0.1911806762,0.04839279503,1.040596247,0.08778304607,0.1191126481,0.2706489861,,,,,,,,,,,,,,,,,,,,
TEST_STATE,0.5,1726608206878592256,4,302.9060059,0,-0.188537553,0.05927770585,1.048594356,0.1068292186,0.1367919445,0.270868659,,,,,,,,,,,,,,,,,,,,
TEST_STATE,0.5,1726608206878743808,,,,,,,,,,302.9060059,0,0.01833666861,-0.6459291577,-0.7629805207,-0.01732450351,68.10842896,2,1,0,0.0008852437604,0.01243659854,0.01058868505,0.0007920396747,0.08058692515,0.1057854667,0.2852554619,-1.825178623,0.4001734555,10.12035179
TEST_STATE,0.5,1726608206879587584,4,302.9070129,0,-0.1830951124,0.06457114965,1.04878366,0.1240799725,0.1552889496,0.2671410739,,,,,,,,,,,,,,,,,,,,
TEST_STATE,0.5,1726608206880582144,4,302.9079895,0,-0.1800335348,0.05957807973,1.034139752,0.132941708,0.1581532359,0.2561336756,,,,,,,,,,,,,,,,,,,,
TEST_STATE,0.5,1726608206880738560,,,,,,,,,,302.9079895,0,0.01849423349,-0.6461344957,-0.7628027201,-0.01732544415,68.10842896,2,1,0,0.0008852437604,0.01243659854,0.01058868505,0.0007920396747,0.1078392714,0.1352741122,0.2631477416,-1.872687578,0.5932601094,10.29911804
TEST_STATE,0.5,1726608206881575936,4,302.9089966,0,-0.1462202072,0.02191003785,1.017967343,0.1446145475,0.1666662991,0.2538166642,,,,,,,,,,,,,,,,,,,,
TEST_STATE,0.5,1726608206882568704,4,302.9100037,0,-0.1188085079,0.0007995720953,1.007150888,0.1504504383,0.1618207991,0.2452196181,,,,,,,,,,,,,,,,,,,,
TEST_STATE,0.5,1726608206882731264,,,,,,,,,,302.9100037,0,0.01869135723,-0.6463268995,-0.7626349926,-0.01732245833,68.38323212,2,1,0,0.0008852437604,0.01243659854,0.01058868505,0.0007920396747,0.1385242045,0.1611371785,0.2540971935,-1.753998637,0.6096909642,10.16812801
TEST_STATE,0.5,1726608206883560704,4,302.9110107,0,-0.09259731323,-0.02180444635,0.9852933884,0.1467174292,0.1625989079,0.2266525924,,,,,,,,,,,,,,,,,,,,
TEST_STATE,0.5,1726608206884551680,4,302.9119873,0,-0.07534892857,-0.04764350504,0.9791200757,0.1441176981,0.1554719657,0.226092428,,,,,,,,,,,,,,,,,,,,
TEST_STATE,0.5,1726608206884722432,,,,,,,,,,302.9119873,0,0.01891406812,-0.6465109587,-0.7624738216,-0.01731071621,68.38323212,2,1,0,0.0008852437604,0.01243659854,0.01058868505,0.0007920396747,0.1548074186,0.1630274206,0.243194133,-1.108398795,-0.07211243361,9.845556259
TEST_STATE,0.5,1726608206885541632,4,302.9129944,0,-0.07424365729,-0.05663716048,0.9928064346,0.1455384493,0.1533606201,0.2204078883,,,,,,,,,,,,,,,,,,,,
TEST_STATE,0.5,1726608206886535936,4,302.9140015,0,-0.06221448258,-0.07641006261,0.9962576628,0.1455074996,0.1540521085,0.2070347369,,,,,,,,,,,,,,,,,,,,
TEST_STATE,0.5,1726608206886716928,,,,,,,,,,302.9140015,0,0.01913610473,-0.6466809511,-0.7623243928,-0.01729470491,68.38323212,2,1,0,0.0008852437604,0.01243659854,0.01058868505,0.0007920396747,0.145103544,0.1546307504,0.2174343169,-0.6878272891,-0.4917437732,9.544652939
TEST_STATE,0.5,1726608206887529728,4,302.9150085,0,-0.04769166559,-0.09750980139,0.9957381487,0.1416919827,0.1543548852,0.2155376226,,,,,,,,,,,,,,,,,,,,
TEST_STATE,0.5,1726608206888522496,4,302.9159851,0,-0.03374388814,-0.1015571654,0.9915619493,0.136215806,0.14902547,0.2108448446,,,,,,,,,,,,,,,,,,,,
TEST_STATE,0.5,1726608206888709376,,,,,,,,,,302.9159851,0,0.01935086586,-0.6468364596,-0.7621874809,-0.01727785356,68.38323212,2,1,0,0.0008852437604,0.01243659854,0.01058868505,0.0007920396747,0.1476669163,0.1508708298,0.2048052251,-0.6280958056,-0.7421700954,9.806520462
TEST_STATE,0.5,1726608206889514240,4,302.9169922,0,-0.002464514226,-0.1031147689,0.9796365499,0.1249456257,0.1451782137,0.1986785382,,,,,,,,,,,,,,,,,,,,
TEST_STATE,0.5,1726608206890505216,4,302.9179993,0,0.008403820917,-0.09089499712,0.9736572504,0.1209289953,0.1392634809,0.1985779703,,,,,,,,,,,,,,,,,,,,
TEST_STATE,0.5,1726608206890700288,,,,,,,,,,302.9179993,0,0.01956054009,-0.6469897628,-0.7620524168,-0.01726163924,68.38323212,2,1,0,0.0008852437604,0.01243659854,0.01058868505,0.0007920396747,0.1376981735,0.1477062404,0.2115542144,-0.3104285598,-1.054590106,9.729717255
TEST_STATE,0.5,1726608206891495168,4,302.9190063,0,0.009110220708,-0.07414992899,0.9710122347,0.1129140854,0.1246924698,0.1947593838,,,,,,,,,,,,,,,,,,,,
TEST_STATE,0.5,1726608206892489472,4,302.9200134,0,0.02120000497,-0.07037614286,0.9712877274,0.1021185219,0.123638995,0.1853157133,,,,,,,,,,,,,,,,,,,,
TEST_STATE,0.5,1726608206892694528,,,,,,,,,,302.9200134,0,0.01975568756,-0.6471384764,-0.761921227,-0.01725160144,68.38323212,2,1,0,0.0008852437604,0.01243659854,0.01058868505,0.0007920396747,0.1197731644,0.1367296726,0.191873759,0.1606903076,-0.9180118442,9.521742821
TEST_STATE,0.5,1726608206893483008,4,302.92099,0,0.02761592716,-0.06339111924,0.9718571305,0.09983858466,0.1167267784,0.1919703335,,,,,,,,,,,,,,,,,,,,
TEST_STATE,0.5,1726608206894475520,4,302.9219971,0,0.01896215603,-0.05360803008,0.9799519777,0.09302534163,0.1098960117,0.1887686998,,,,,,,,,,,,,,,,,,,,
TEST_STATE,0.5,1726608206894687232,,,,,,,,,,302.9219971,0,0.01992766559,-0.6472768784,-0.7617993355,-0.01724497974,68.38323212,2,1,0,0.0008852437604,0.01243659854,0.01058868505,0.0007920396747,0.1032305211,0.1168084368,0.1829662621,0.1885692626,-0.6446157694,9.516331673
TEST_STATE,0.5,1726608206895467520,4,302.9230042,0,0.00851370953,-0.03314751014,0.9876782298,0.08425641805,0.1071156561,0.1824007779,,,,,,,,,,,,,,,,,,,,
TEST_STATE,0.5,1726608206896458496,4,302.9240112,0,-0.01201375946,-0.0001510083675,0.9955880642,0.08499059826,0.102983363,0.188873291,,,,,,,,,,,,,,,,,,,,
TEST_STATE,0.5,1726608206896677888,,,,,,,,,,302.9240112,0,0.02008018084,-0.6474145055,-0.7616785765,-0.01723796874,68.38323212,2,1,0,0.0008852437604,0.01243659854,0.01058868505,0.0007920396747,0.09523945302,0.1065530106,0.1886187345,0.2214077115,-0.5213467479,9.597401619
TEST_STATE,0.5,1726608206897448448,4,302.9249878,0,-0.03131833673,0.0371110104,1.005035162,0.08469421417,0.1006488055,0.177528739,,,,,,,,,,,,,,,,,,,,
TEST_STATE,0.5,1726608206898443008,4,302.9259949,0,-0.05175895244,0.06394351274,1.006695747,0.08694877476,0.09775469452,0.1614446789,,,,,,,,,,,,,,,,,,,,
TEST_STATE,0.5,1726608206898672128,,,,,,,,,,302.9259949,0,0.0202201698,-0.647552371,-0.7615578175,-0.0172330793,68.38323212,2,1,0,0.0008852437604,0.01243659854,0.01058868505,0.0007920396747,0.08376780897,0.100465335,0.1828204691,-0.1138572618,0.003590755863,9.773412704
TEST_STATE,0.5,1726608206899436544,4,302.927002,0,-0.06673391163,0.07995475829,1.007075906,0.08919774741,0.09972972423,0.1639199108,,,,,,,,,,,,,,,,,,,,
TEST_STATE,0.5,1726608206900434944,4,302.928009,0,-0.07335485518,0.0894779712,1.006325006,0.09451047331,0.1068184823,0.1512784213,,,,,,,,,,,,,,,,,,,,
TEST_STATE,0.5,1726608206900670464,,,,,,,,,,302.928009,0,0.02035325393,-0.6476786137,-0.7614468932,-0.01722750813,68.38323212,2,1,0,0.0008852437604,0.01243659854,0.01058868505,0.0007920396747,0.08814643323,0.09515381604,0.1579060405,-0.5314247608,0.6955750585,9.89884758
TEST_STATE,0.5,1726608206901432576,4,302.9289856,0,-0.07838501036,0.100867942,1.009907842,0.09782869369,0.1160257012,0.136108309,,,,,,,,,,,,,,,,,,,,
TEST_STATE,0.5,1726608206902429184,4,302.9299927,0,-0.07833752036,0.1125994399,1.012846708,0.1069569439,0.1237747371,0.1432499439,,,,,,,,,,,,,,,,,,,,
TEST_STATE,0.5,1726608206902666752,,,,,,,,,,302.9299927,0,0.0204912778,-0.6477928162,-0.7613462806,-0.01721868664,68.38323212,2,1,0,0.0008852437604,0.01243659854,0.01058868505,0.0007920396747,0.09596272558,0.1037755162,0.1515133232,-0.7543212175,0.9104939103,9.871202469
TEST_STATE,0.5,1726608206903424768,4,302.9309998,0,-0.08098999411,0.1213686764,1.019549727,0.1132316291,0.1272406727,0.1359943897,,,,,,,,,,,,,,,,,,,,
TEST_STATE,0.5,1726608206904419584,4,302.9320068,0,-0.07381471246,0.1169667393,1.016239882,0.1190188825,0.1356801689,0.1293574125,,,,,,,,,,,,,,,,,,,,
TEST_STATE,0.5,1726608206904661504,,,,,,,,,,302.9320068,0,0.0206461139,-0.6478975415,-0.7612531781,-0.01721151732,68.38323212,2,1,0,0.0008852437604,0.01243659854,0.01058868505,0.0007920396747,0.1080563515,0.1229138523,0.1342737377,-0.7840231657,1.118880749,9.93858242
TEST_STATE,0.5,1726608206905413632,4,302.9330139,0,-0.06048004702,0.1112851202,1.007553697,0.1211179271,0.1385290027,0.1350093782,,,,,,,,,,,,,,,,,,,,
TEST_STATE,0.5,1726608206906406912,4,302.9339905,0,-0.04507955909,0.1003854498,0.9963530302,0.1250402927,0.1361121982,0.1255299151,,,,,,,,,,,,,,,,,,,,
TEST_STATE,0.5,1726608206906654464,,,,,,,,,,302.9339905,0,0.02082012221,-0.6479917765,-0.7611683011,-0.01720425673,68.38323212,2,1,0,0.0008852437604,0.01243659854,0.01058868505,0.0007920396747,0.1216662675,0.1328664273,0.1254039258,-0.7449457645,1.182272792,9.992730141
TEST_STATE,0.5,1726608206907399424,4,302.9349976,0,-0.04183646664,0.08477819711,0.9905616045,0.1237756237,0.1322488636,0.1171927005,,,,,,,,,,,,,,,,,,,,
TEST_STATE,0.5,1726608206908390912,4,302.9360046,0,-0.0422363542,0.07278628647,0.9915983081,0.1232068166,0.1352995783,0.1191825122,,,,,,,,,,,,,,,,,,,,
TEST_STATE,0.5,1726608206908645888,,,,,,,,,,302.9360046,0,0.02100472897,-0.6480826139,-0.7610861063,-0.0171939265,68.38323212,2,1,0,0.0008852437604,0.01243659854,0.01058868505,0.0007920396747,0.1266975552,0.1350744069,0.126201421,-0.4278926253,0.9861351848,9.763724327
TEST_STATE,0.5,1726608206909381376,4,302.9370117,0,-0.04557998106,0.06184062362,0.9957566261,0.1259541214,0.1326128393,0.1130878106,,,,,,,,,,,,,,,,,,,,
TEST_STATE,0.5,1726608206910375936,4,302.9379883,0,-0.04142624885,0.03845468163,1.002913117,0.1209713668,0.1329470575,0.1117130071,,,,,,,,,,,,,,,,,,,,
TEST_STATE,0.5,1726608206910640128,,,,,,,,,,302.9379883,0,0.02118952572,-0.6481688619,-0.7610078454,-0.0171820391,68.38323212,2,1,0,0.0008852437604,0.01243659854,0.01058868505,0.0007920396747,0.1246093661,0.1311317533,0.1133173555,-0.403360635,0.6864352822,9.704331398
TEST_STATE,0.5,1726608206911369472,4,302.9389954,0,-0.03496871516,0.009898241609,0.9994016886,0.1159056723,0.1305908859,0.1212878749,,,,,,,,,,,,,,,,,,,,
TEST_STATE,0.5,1726608206912362240,4,302.9400024,0,-0.02333231643,-0.0183361955,0.9946092367,0.113884531,0.124686718,0.1157000735,,,,,,,,,,,,,,,,,,,,
TEST_STATE,0.5,1726608206912632576,,,,,,,,,,302.9400024,0,0.02137136459,-0.6482478976,-0.7609357834,-0.01716944762,68.38323212,2,1,0,0.0008852437604,0.01243659854,0.01058868505,0.0007920396747,0.1244529337,0.1296473742,0.1071729511,-0.4240868092,0.3846097589,9.83544445
TEST_STATE,0.5,1726608206913354240,4,302.9410095,0,-0.01195849944,-0.03836064786,0.9845333099,0.1100274622,0.1227598041,0.1185068563,,,,,,,,,,,,,,,,,,,,
TEST_STATE,0.5,1726608206914345216,4,302.9419861,0,-0.002441418357,-0.05042335391,0.9737750292,0.1065819263,0.1205146015,0.1280771345,,,,,,,,,,,,,,,,,,,,
TEST_STATE,0.5,1726608206914623488,,,,,,,,,,302.9419861,0,0.0215466693,-0.6483284235,-0.7608625293,-0.01715796813,68.38323212,2,1,0,0.0008827623096,0.01243687887,0.01058193576,0.0007999666268,0.1143411323,0.122625649,0.1169132143,-0.2293806523,-0.2186500281,9.75135994
TEST_STATE,0.5,1726608206915335168,4,302.9429932,0,0.0002183825709,-0.05055416375,0.9693520665,0.0975369066,0.1118732467,0.1287740469,,,,,,,,,,,,,,,,,,,,
TEST_STATE,0.5,1726608206916329728,4,302.9440002,0,0.002865142887,-0.0445869416,0.9643682837,0.08763059229,0.1037466824,0.1309172213,,,,,,,,,,,,,,,,,,,,
TEST_STATE,0.5,1726608206916617728,,,,,,,,,,302.9440002,0,0.02171222493,-0.6484157443,-0.7607836127,-0.01714888215,68.38323212,2,1,0,0.0008827623096,0.01243687887,0.01058193576,0.0007999666268,0.1076821014,0.1179252714,0.1243819147,-0.005395262036,-0.5354997516,9.537184715
TEST_STATE,0.5,1726608206917323520,4,302.9450073,0,-0.01059650443,-0.04015440121,0.9649061561,0.07794232666,0.08909607679,0.1376752853,,,,,,,,,,,,,,,,,,,,
TEST_STATE,0.5,1726608206918316288,4,302.9460144,0,-0.02522580698,-0.03644327819,0.9696617723,0.06686537713,0.07632400841,0.1346711963,,,,,,,,,,,,,,,,,,,,
TEST_STATE,0.5,1726608206918610176,,,,,,,,,,302.9460144,0,0.02186084166,-0.6485076547,-0.7607010007,-0.01714229025,68.38323212,2,1,0,0.0008827623096,0.01243687887,0.01058193576,0.0007999666268,0.08825322986,0.1000886858,0.1278998256,0.03169119358,-0.448297888,9.452295303
TEST_STATE,0.5,1726608206919308032,4,302.946991,0,-0.04098343849,-0.02035772055,0.9833700061,0.05590828508,0.07139668614,0.1355540603,,,,,,,,,,,,,,,,,,,,
TEST_STATE,0.5,1726608206920304640,4,302.947998,0,-0.06558787078,-0.003505837172,0.9999060631,0.05639751628,0.07421730459,0.1372087896,,,,,,,,,,,,,,,,,,,,
TEST_STATE,0.5,1726608206920606720,,,,,,,,,,302.947998,0,0.02197889611,-0.6486043334,-0.7606154084,-0.01713585481,68.38323212,2,1,0,0.0008827623096,0.01243687887,0.01058193576,0.0007999666268,0.06749602407,0.07159724087,0.1345183104,-0.2633238435,-0.3501734734,9.502340317
TEST_STATE,0.5,1726608206921300480,4,302.9490051,0,-0.09866687655,0.01327267848,1.0107131,0.05827760324,0.07037191093,0.1274778843,,,,,,,,,,,,,,,,,,,,
TEST_STATE,0.5,1726608206922295296,4,302.9500122,0,-0.1161780953,0.02005289122,1.01224196,0.06428239495,0.07601491362,0.1293301135,,,,,,,,,,,,,,,,,,,,
TEST_STATE,0.5,1726608206922601216,,,,,,,,,,302.9500122,0,0.02207452618,-0.648704052,-0.76052773,-0.01713233627,68.38323212,2,1,0,0.0008827623096,0.01243687887,0.01058193576,0.0007999666268,0.05452261865,0.06975261122,0.1343393326,-0.64855057,-0.01419936214,9.819058418
TEST_STATE,0.5,1726608206923289088,4,302.9509888,0,-0.1343045086,0.0378748104,1.005764246,0.06892770529,0.0823610723,0.1314472407,,,,,,,,,,,,,,,,,,,,
TEST_STATE,0.5,1726608206924281856,4,302.9519958,0,-0.1369753927,0.03746818006,0.9900888801,0.06895103306,0.08443893492,0.1206137612,,,,,,,,,,,,,,,,,,,,
TEST_STATE,0.5,1726608206924594176,,,,,,,,,,302.9519958,0,0.0221693255,-0.6487994194,-0.7604436874,-0.01712963544,68.56290436,2,1,0,0.0008827623096,0.01243687887,0.01058193576,0.0007999666268,0.06549156457,0.07138191909,0.1230462641,-1.211377382,0.2369478196,9.957713127
TEST_STATE,0.5,1726608206925273856,4,302.9530029,0,-0.1386311948,0.03987970203,0.9813594818,0.06738610566,0.08608853817,0.1173021868,,,,,,,,,,,,,,,,,,,,
TEST_STATE,0.5,1726608206926265088,4,302.95401,0,-0.1453709602,0.04279569164,0.9810967445,0.06243992224,0.08433859795,0.1143027544,,,,,,,,,,,,,,,,,,,,
TEST_STATE,0.5,1726608206926585344,,,,,,,,,,302.95401,0,0.02227501944,-0.6488891244,-0.7603641748,-0.01712491922,68.56290436,2,1,0,0.0008827623096,0.01243687887,0.01058193576,0.0007999666268,0.07212711871,0.08369773626,0.1204061657,-1.395097852,0.4237937033,9.717164993
TEST_STATE,0.5,1726608206927255552,4,302.9549866,0,-0.1511670053,0.03611991182,0.9885704517,0.06469061226,0.07854790986,0.1039787382,,,,,,,,,,,,,,,,,,,,
TEST_STATE,0.5,1726608206928250112,4,302.9559937,0,-0.154738307,0.03355580568,0.9990515113,0.06851995736,0.07627195865,0.1077021137,,,,,,,,,,,,,,,,,,,,
TEST_STATE,0.5,1726608206928579584,,,,,,,,,,302.9559937,0,0.02238463983,-0.6489741206,-0.7602884173,-0.01712440141,68.56290436,2,1,0,0.0008827623096,0.01243687887,0.01058193576,0.0007999666268,0.06454224139,0.08279781044,0.1109437943,-1.418761253,0.4220099449,9.594491005
TEST_STATE,0.5,1726608206929243904,4,302.9570007,0,-0.1531017721,0.03174702078,1.0065943,0.07332631946,0.08014330268,0.1094042063,,,,,,,,,,,,,,,,,,,,
TEST_STATE,0.5,1726608206930236672,4,302.9580078,0,-0.1442354023,0.02628635615,1.00365293,0.07513023168,0.08330323547,0.1036317348,,,,,,,,,,,,,,,,,,,,
TEST_STATE,0.5,1726608206930572032,,,,,,,,,,302.9580078,0,0.02248920873,-0.6490517855,-0.7602190971,-0.01712117158,68.56290436,2,1,0,0.0008827623096,0.01243687887,0.01058193576,0.0007999666268,0.07024241984,0.07245853543,0.1008894891,-1.529188991,0.3128035069,9.80200386
TEST_STATE,0.5,1726608206931228672,4,302.9590149,0,-0.1303169429,0.02350924723,0.9972819686,0.07902375609,0.08763999492,0.09763870388,,,,,,,,,,,,,,,,,,,,
TEST_STATE,0.5,1726608206932219648,4,302.9599915,0,-0.1184405163,0.01624204218,0.9870128036,0.07998906076,0.08972081542,0.09164074063,,,,,,,,,,,,,,,,,,,,
TEST_STATE,0.5,1726608206932562944,,,,,,,,,,302.9599915,0,0.0225976184,-0.6491260529,-0.7601526976,-0.017112514,68.56290436,2,1,0,0.0008827623096,0.01243687887,0.01058193576,0.0007999666268,0.07803408056,0.08157768846,0.1023724973,-1.425159693,0.2618670166,9.871256828
TEST_STATE,0.5,1726608206933209600,4,302.9609985,0,-0.1087501273,0.008998924866,0.9819356799,0.07796430588,0.08578449488,0.07682301104,,,,,,,,,,,,,,,,,,,,
TEST_STATE,0.5,1726608206934204160,4,302.9620056,0,-0.09441882372,-0.008734535426,0.9779571891,0.07427705079,0.08133701235,0.07888312638,,,,,,,,,,,,,,,,,,,,
TEST_STATE,0.5,1726608206934557440,,,,,,,,,,302.9620056,0,0.02271601371,-0.649195075,-0.7600902319,-0.01710439846,68.56290436,2,1,0,0.0008827623096,0.01243687887,0.01058193576,0.0007999666268,0.08275473118,0.08833947033,0.08797302842,-1.139221311,0.163562566,9.677698135
TEST_STATE,0.5,1726608206935197952,4,302.9630127,0,-0.0846349448,-0.02633929811,0.9818093181,0.07331870496,0.07801034302,0.0802475512,,,,,,,,,,,,,,,,,,,,
TEST_STATE,0.5,1726608206936190720,4,302.9639893,0,-0.07489935309,-0.04554918408,0.9848994017,0.06959009916,0.07262566686,0.07033511996,,,,,,,,,,,,,,,,,,,,
TEST_STATE,0.5,1726608206936550144,,,,,,,,,,302.9639893,0,0.02283231542,-0.6492522359,-0.7600381374,-0.01709641702,68.56290436,2,1,0,0.0008827623096,0.01243687887,0.01058193576,0.0007999666268,0.07600428164,0.07850833982,0.07094234228,-0.9212126732,-0.07667215914,9.58172226
TEST_STATE,0.5,1726608206937182720,4,302.9649963,0,-0.06139959395,-0.06033600122,0.9819722772,0.05889922753,0.06750591099,0.07130067796,,,,,,,,,,,,,,,,,,,,
TEST_STATE,0.5,1726608206938173696,4,302.9660034,0,-0.05734655634,-0.0597383827,0.9791554809,0.05010803789,0.0600913614,0.07484575361,,,,,,,,,,,,,,,,,,,,
TEST_STATE,0.5,1726608206938541056,,,,,,,,,,302.9660034,0,0.02293795161,-0.649302721,-0.759992063,-0.01708695665,68.56290436,2,1,0,0.0008827623096,0.01243687887,0.01058193576,0.0007999666268,0.07166425139,0.07016136497,0.06972055137,-0.7213119268,-0.4674136639,9.665081978
TEST_STATE,0.5,1726608206939163904,4,302.9670105,0,-0.05527287349,-0.05379399657,0.9750825763,0.04545938969,0.05057298392,0.06845922768,,,,,,,,,,,,,,,,,,,,
TEST_STATE,0.5,1726608206940164608,4,302.9679871,0,-0.04892060906,-0.04490560293,0.9693930745,0.03838829696,0.04472918063,0.06810010225,,,,,,,,,,,,,,,,,,,,
TEST_STATE,0.5,1726608206940541440,,,,,,,,,,302.9679871,0,0.02302714251,-0.649353981,-0.7599457502,-0.01708052307,68.56290436,2,1,0,0.0008827623096,0.01243687887,0.01058193576,0.0007999666268,0.05000414699,0.0574249737,0.07165917754,-0.5274540186,-0.63306427,9.598114967
TEST_STATE,0.5,1726608206941164288,4,302.9689941,0,-0.04726726562,-0.02701937407,0.970223248,0.02853700891,0.04025642574,0.0603848137,,,,,,,,,,,,,,,,,,,,
TEST_STATE,0.5,1726608206942163200,4,302.9700012,0,-0.05422815308,-0.004990583286,0.978975296,0.02814015932,0.03147218376,0.04871062934,,,,,,,,,,,,,,,,,,,,
TEST_STATE,0.5,1726608206942540032,,,,,,,,,,302.9700012,0,0.02309464477,-0.6494033933,-0.7599015832,-0.01707656495,68.56290436,2,1,0,0.0008827623096,0.01243687887,0.01058193576,0.0007999666268,0.03989512473,0.04037735984,0.06328260899,-0.4845873713,-0.437658906,9.503921509
TEST_STATE,0.5,1726608206943161088,4,302.9710083,0,-0.05301868543,0.008798861876,0.9834163785,0.01871509664,0.03364539519,0.04355645552,,,,,,,,,,,,,,,,,,,,
TEST_STATE,0.5,1726608206944157952,4,302.9719849,0,-0.05992993712,0.03102038056,1.00068891,0.02260612324,0.02754523978,0.03955506161,,,,,,,,,,,,,,,,,,,,
TEST_STATE,0.5,1726608206944537088,,,,,,,,,,302.9719849,0,0.02314368263,-0.649443388,-0.7598659992,-0.01707258821,68.56290436,2,1,0,0.0008827623096,0.01243687887,0.01058193576,0.0007999666268,0.02677826583,0.0292607192,0.04552601278,-0.5142274499,-0.03236179426,9.587467194
TEST_STATE,0.5,1726608206945154048,4,302.9729919,0,-0.06392819434,0.04371715337,1.004966974,0.02899900824,0.03314113617,0.02301340364,,,,,,,,,,,,,,,,,,,,
TEST_STATE,0.5,1726608206946149632,4,302.973999,0,-0.06992928684,0.04643424973,1.006317973,0.02802555822,0.03825002536,0.02075280994,,,,,,,,,,,,,,,,,,,,
TEST_STATE,0.5,1726608206946532096,,,,,,,,,,302.973999,0,0.0231811218,-0.6494732499,-0.7598393559,-0.01707190275,68.56290436,2,1,0,0.0008827623096,0.01243687887,0.01058193576,0.0007999666268,0.02060084045,0.02696156316,0.03579160944,-0.5716215968,0.3076553345,9.79649353
TEST_STATE,0.5,1726608206947144448,4,302.9750061,0,-0.06494191289,0.05037551001,0.9942878485,0.02967396192,0.03562505171,0.01479873993,,,,,,,,,,,,,,,,,,,,
TEST_STATE,0.5,1726608206948138240,4,302.9760132,0,-0.05879029259,0.05128511414,0.9849522114,0.02651993744,0.02848500386,0.0004856009036,,,,,,,,,,,,,,,,,,,,
TEST_STATE,0.5,1726608206948525568,,,,,,,,,,302.9760132,0,0.02322279476,-0.6494906545,-0.7598232031,-0.01707205549,68.56290436,2,1,0,0.0008827623096,0.01243687887,0.01058193576,0.0007999666268,0.03193907067,0.03671927005,0.0130483415,-0.6875680685,0.4901573062,9.879556656
TEST_STATE,0.5,1726608206949131008,4,302.9769897,0,-0.05848748237,0.05967906117,0.9758825302,0.02129766345,0.02547623217,-0.007602680475,,,,,,,,,,,,,,,,,,,,
TEST_STATE,0.5,1726608206950122752,4,302.9779968,0,-0.06408026814,0.06993164122,0.9841714501,0.02302535065,0.02133753896,-0.01402721275,,,,,,,,,,,,,,,,,,,,
TEST_STATE,0.5,1726608206950516992,,,,,,,,,,302.9779968,0,0.02326682769,-0.6494937539,-0.7598192692,-0.01706920192,68.56290436,2,1,0,0.0008827623096,0.01243687887,0.01058193576,0.0007999666268,0.02931943163,0.02656298503,-0.001658943016,-0.5719220638,0.5136158466,9.638162613
TEST_STATE,0.5,1726608206951113728,4,302.9790039,0,-0.07343232632,0.07447833568,0.9946125746,0.02422113158,0.01870814711,-0.02631552145,,,,,,,,,,,,,,,,,,,,
TEST_STATE,0.5,1726608206952108288,4,302.980011,0,-0.07747206092,0.07965809107,1.007633328,0.01966940053,0.02316579223,-0.02959856391,,,,,,,,,,,,,,,,,,,,
TEST_STATE,0.5,1726608206952511744,,,,,,,,,,302.980011,0,0.02330078185,-0.6494851708,-0.7598256469,-0.01706436649,68.56290436,2,1,0,0.0008827623096,0.01243687887,0.01058193576,0.0007999666268,0.02275090292,0.01874801517,-0.01828436553,-0.617500484,0.693729043,9.608345032
TEST_STATE,0.5,1726608206953102080,4,302.9809875,0,-0.06986636668,0.08096867055,1.011189938,0.02256254479,0.02401087247,-0.04034448415,,,,,,,,,,,,,,,,,,,,
TEST_STATE,0.5,1726608206954095104,4,302.9819946,0,-0.07116393745,0.07324486226,1.019157887,0.03111705557,0.03190141171,-0.05470721424,,,,,,,,,,,,,,,,,,,,
TEST_STATE,0.5,1726608206954504448,,,,,,,,,,302.9819946,0,0.02332943305,-0.6494637728,-0.7598431706,-0.01706007682,68.56290436,2,1,0,0.0008827623096,0.01243687887,0.01058193576,0.0007999666268,0.02257880196,0.01913517155,-0.03576338664,-0.7817395329,0.7861391902,9.890900612
TEST_STATE,0.5,1726608206955087360,4,302.9830017,0,-0.06428322196,0.05409574509,1.005589724,0.03281797469,0.03751978651,-0.0576733835,,,,,,,,,,,,,,,,,,,,
TEST_STATE,0.5,1726608206956078592,4,302.9840088,0,-0.03090026602,0.0648933351,0.9929621816,0.03519241139,0.04084635898,-0.05907154083,,,,,,,,,,,,,,,,,,,,
TEST_STATE,0.5,1726608206956495360,,,,,,,,,,302.9840088,0,0.02336445637,-0.6494269371,-0.7598736286,-0.01705578901,68.56290436,2,1,0,0.0008827623096,0.01243687887,0.01058193576,0.0007999666268,0.03218545392,0.02835300192,-0.05836803466,-0.6718320251,0.7361469269,9.991427422
TEST_STATE,0.5,1726608206957068800,4,302.9849854,0,-0.02793187462,0.05329629406,0.9810601473,0.03650932014,0.03493036702,-0.06428845227,,,,,,,,,,,,,,,,,,,,
TEST_STATE,0.5,1726608206958063616,4,302.9859924,0,-0.0193061512,0.00947964564,0.9697196484,0.03182086721,0.03090437129,-0.06924802065,,,,,,,,,,,,,,,,,,,,
TEST_STATE,0.5,1726608206958489856,,,,,,,,,,302.9859924,0,0.02341172658,-0.649379611,-0.7599127293,-0.01705299504,68.56290436,2,1,0,0.0008827623096,0.01243687887,0.01058193576,0.0007999666268,0.03700421378,0.03964655846,-0.06261150539,-0.3410333395,0.5573715568,9.717777252
TEST_STATE,0.5,1726608206959057664,4,302.9869995,0,-0.02044495195,0.03143459186,0.998565793,0.02426171675,0.02520651929,-0.07509300113,,,,,,,,,,,,,,,,,,,,
TEST_STATE,0.5,1726608206960056576,4,302.9880066,0,-0.01455463283,0.005548544228,0.9747819901,0.01637907885,0.01267455891,-0.07437360287,,,,,,,,,,,,,,,,,,,,
TEST_STATE,0.5,1726608206960488704,,,,,,,,,,302.9880066,0,0.02345934696,-0.6493267417,-0.7599565387,-0.01704905927,68.56290436,2,1,0,0.0008827623096,0.01243687887,0.01058193576,0.0007999666268,0.03479360789,0.02736900561,-0.07285735011,-0.195428893,0.1348312795,9.492753983
TEST_STATE,0.5,1726608206961054464,4,302.9890137,0,-0.02427043393,-0.02317082882,0.984107554,0.01510196365,0.01191760413,-0.07155521959,,,,,,,,,,,,,,,,,,,,
TEST_STATE,0.5,1726608206962051328,4,302.9899902,0,-0.02889471129,-0.01811029017,0.9784990549,0.01155021228,0.00149013754,-0.07089583576,,,,,,,,,,,,,,,,,,,,
TEST_STATE,0.5,1726608206962485760,,,,,,,,,,302.9899902,0,0.02348938584,-0.6492680311,-0.7600058913,-0.01704349928,68.56290436,2,1,0,0.0008827623096,0.01243687887,0.01058193576,0.0007999666268,0.01710681617,0.01075409539,-0.07921467721,-0.1567724645,0.169062078,9.691768646
TEST_STATE,0.5,1726608206963047680,4,302.9909973,0,-0.02916479483,-0.02037195861,0.9880657792,0.006591542158,0.003772567958,-0.06840870529,,,,,,,,,,,,,,,,,,,,
TEST_STATE,0.5,1726608206964043008,4,302.9920044,0,-0.04381751269,-0.00272956863,0.9990615249,0.005995644722,0.006073533092,-0.06001952291,,,,,,,,,,,,,,,,,,,,
TEST_STATE,0.5,1726608206964480512,,,,,,,,,,302.9920044,0,0.02350239828,-0.6492097378,-0.7600554228,-0.01703739725,68.33302307,2,1,0,0.0008827623096,0.01243687887,0.01058193576,0.0007999666268,0.01349075418,0.0007599936798,-0.07296836376,-0.3054454625,-0.2762673199,9.634901047
TEST_STATE,0.5,1726608206965037312,4,302.9930115,0,-0.04530300573,-0.002377771772,1.004381657,0.003821437014,0.001291468274,-0.05954344571,,,,,,,,,,,,,,,,,,,,
TEST_STATE,0.5,1726608206966030592,4,302.993988,0,-0.05153075978,-0.003242064733,0.9891629219,0.002369426191,0.003346104408,-0.05551102757,,,,,,,,,,,,,,,,,,,,
TEST_STATE,0.5,1726608206966473472,,,,,,,,,,302.993988,0,0.02350944281,-0.6491575837,-0.7600998878,-0.01703305356,68.33302307,2,1,0,0.0008827623096,0.01243687887,0.01058193576,0.0007999666268,0.006227325648,0.003998226486,-0.06360191107,-0.4044428766,-0.06526331604,9.807718277
TEST_STATE,0.5,1726608206967023360,4,302.9949951,0,-0.04994955286,0.008989507332,0.9808155894,0.0005516702076,0.001376019791,-0.04677506536,,,,,,,,,,,,,,,,,,,,
TEST_STATE,0.5,1726608206968015104,4,302.9960022,0,-0.04942363128,0.001265889034,0.981154263,0.001127380878,0.000141645316,-0.04843600094,,,,,,,,,,,,,,,,,,,,
TEST_STATE,0.5,1726608206968465152,,,,,,,,,,302.9960022,0,0.02351276763,-0.6491108537,-0.7601397038,-0.01703173853,68.33302307,2,1,0,0.0008827623096,0.01243687887,0.01058193576,0.0007999666268,0.00364293321,-0.0009331419133,-0.05894197896,-0.4988839328,-0.02915725112,9.74409771
TEST_STATE,0.5,1726608206969006080,4,302.9970093,0,-0.06320944428,-0.0007762880996,0.9991689324,-0.0007643630961,0.0009433761588,-0.04915351793,,,,,,,,,,,,,,,,,,,,
TEST_STATE,0.5,1726608206970000896,4,302.9979858,0,-0.07354041189,0.02026356757,1.004226327,-0.002381515689,0.001275673974,-0.04706669226,,,,,,,,,,,,,,,,,,,,
TEST_STATE,0.5,1726608206970460160,,,,,,,,,,302.9979858,0,0.02351237461,-0.6490700841,-0.7601745725,-0.01702963747,68.33302307,2,1,0,0.0008827623096,0.01243687887,0.01058193576,0.0007999666268,0.002145929728,-0.002644949127,-0.04820332676,-0.480679363,0.06435732543,9.595176697
TEST_STATE,0.5,1726608206970995200,4,302.9989929,0,-0.06898557395,0.02135235444,0.9989245534,0.0008635055274,0.0005665477947,-0.04218966514,,,,,,,,,,,,,,,,,,,,
TEST_STATE,0.5,1726608206971988480,4,303,0,-0.08991166204,0.01541287452,0.9999588728,-0.005239554215,-0.001696389634,-0.0415068455,,,,,,,,,,,,,,,,,,,,
TEST_STATE,0.5,1726608206972452864,,,,,,,,,,303,0,0.02351055667,-0.6490325928,-0.7602066398,-0.01702920347,68.33302307,2,1,0,0.0008827623096,0.01243687887,0.01058193576,0.0007999666268,-0.0009880817961,-0.0009132629493,-0.05052408203,-0.745810926,0.1548534632,9.895319939
TEST_STATE,0.5,1726608206972980992,4,303.0010071,0,-0.09835166484,0.002279479057,0.9905674458,-0.001637423644,-5.28E-05,-0.03700653836,,,,,,,,,,,,,,,,,,,,
TEST_STATE,0.5,1726608206973972480,4,303.0020142,0,-0.09838573635,0.01052180957,0.9888799191,-0.002739883959,0.001024361933,-0.03590088338,,,,,,,,,,,,,,,,,,,,
TEST_STATE,0.5,1726608206974443776,,,,,,,,,,303.0020142,0,0.0235071592,-0.648997128,-0.7602369785,-0.01702964865,68.33302307,2,1,0,0.0008827623096,0.01243687887,0.01058193576,0.0007999666268,-0.001396004809,-0.003894718364,-0.0429283455,-0.8302270174,0.1651283801,9.787854195
TEST_STATE,0.5,1726608206974962944,4,303.0029907,0,-0.1021814197,0.02758834139,1.004862905,-0.0007759635337,-0.0001331915846,-0.03653994575,,,,,,,,,,,,,,,,,,,,
TEST_STATE,0.5,1726608206975957760,4,303.0039978,0,-0.1072042286,0.02067235112,1.010493279,0.0004189073807,0.005559484009,-0.0324476473,,,,,,,,,,,,,,,,,,,,
TEST_STATE,0.5,1726608206976438528,,,,,,,,,,303.0039978,0,0.02350424789,-0.6489666104,-0.760263145,-0.01702940837,68.33302307,2,1,0,0.0008827623096,0.01243687887,0.01058193576,0.0007999666268,0.0003087925725,-0.00103197014,-0.03751912341,-0.9911215901,0.04750362411,9.671290398
TEST_STATE,0.5,1726608206976952064,4,303.0050049,0,-0.1173051,0.02716744691,1.010923624,-7.10E-05,0.01024411805,-0.03182386979,,,,,,,,,,,,,,,,,,,,
TEST_STATE,0.5,1726608206977945344,4,303.006012,0,-0.1095612869,0.02681851573,1.008841991,0.008840404451,0.01650230214,-0.02873217314,,,,,,,,,,,,,,,,,,,,
TEST_STATE,0.5,1726608206978431488,,,,,,,,,,303.006012,0,0.02350482158,-0.6489385366,-0.760287106,-0.01702943631,68.33302307,2,1,0,0.0008827623096,0.01243687887,0.01058193576,0.0007999666268,0.002528727055,0.00177294272,-0.03624444455,-1.054216385,0.268325597,9.9494133
TEST_STATE,0.5,1726608206978937600,4,303.0069885,0,-0.09924337268,0.01266075671,1.013128519,0.0128471395,0.01714697666,-0.02060721815,,,,,,,,,,,,,,,,,,,,
TEST_STATE,0.5,1726608206979934720,4,303.0079956,0,-0.08699215949,-0.006278956309,0.9942043424,0.01423025783,0.01860604249,-0.01418006048,,,,,,,,,,,,,,,,,,,,
TEST_STATE,0.5,1726608206980428032,,,,,,,,,,303.0079956,0,0.02351407893,-0.6489123106,-0.7603090405,-0.01703121327,68.33302307,2,1,0,0.0008827623096,0.01243687887,0.01058193576,0.0007999666268,0.008767146617,0.01447262987,-0.03194519877,-1.119761944,0.2839019001,9.898412704
TEST_STATE,0.5,1726608206980931072,4,303.0090027,0,-0.07535278797,-0.009664556012,0.9875894785,0.0158827398,0.01652589254,-0.01633907296,,,,,,,,,,,,,,,,,,,,
TEST_STATE,0.5,1726608206981926400,4,303.0100098,0,-0.07197693735,-0.005528967362,0.9882385135,0.00793953985,0.01096369978,-0.01815535873,,,,,,,,,,,,,,,,,,,,
TEST_STATE,0.5,1726608206982423040,,,,,,,,,,303.0100098,0,0.02353366651,-0.6488936543,-0.7603243589,-0.01703193411,68.33302307,2,1,0,0.0008827623096,0.01243687887,0.01058193576,0.0007999666268,0.01695612445,0.0161623694,-0.01561140362,-0.8427227139,-0.07202263176,9.796913147
TEST_STATE,0.5,1726608206982920704,4,303.0109863,0,-0.06850267202,-0.01562840864,0.9875003695,0.002421920653,0.00989648141,-0.01934224367,,,,,,,,,,,,,,,,,,,,
TEST_STATE,0.5,1726608206983914240,4,303.0119934,0,-0.06600291282,-0.02247883007,0.9873342514,0.003760495689,0.006584008224,-0.01623404399,,,,,,,,,,,,,,,,,,,,
TEST_STATE,0.5,1726608206984416000,,,,,,,,,,303.0119934,0,0.02355215885,-0.6488790512,-0.7603362799,-0.01702965051,68.33302307,2,1,0,0.0008827623096,0.01243687887,0.01058193576,0.0007999666268,0.01161049865,0.008928406052,-0.02136243507,-0.6755296588,-0.0721629411,9.669504166
TEST_STATE,0.5,1726608206984906752,4,303.0130005,0,-0.06103921309,-0.02974010259,0.9855473638,0.0003173283767,3.02E-05,-0.006799688563,,,,,,,,,,,,,,,,,,,,
TEST_STATE,0.5,1726608206985898240,4,303.0140076,0,-0.06097045541,-0.03788535297,0.9975836277,-0.001929175807,-0.0012290749,-0.008505154401,,,,,,,,,,,,,,,,,,,,
TEST_STATE,0.5,1726608206986407424,,,,,,,,,,303.0140076,0,0.02356178686,-0.6488630176,-0.7603496909,-0.01702875271,68.33302307,2,1,0,0.0008827623096,0.01243687887,0.01058193576,0.0007999666268,0.003462746041,0.004462373443,-0.02002641559,-0.6408753395,-0.2397612929,9.680433273
TEST_STATE,0.5,1726608206986888960,4,303.0150146,0,-0.06215721369,-0.03597515076,1.000430107,-0.006221300922,0.001039526309,-0.01224981342,,,,,,,,,,,,,,,,,,,,
TEST_STATE,0.5,1726608206987884032,4,303.0159912,0,-0.06001661718,-0.03331165761,0.9985655546,-0.006589337718,0.0005776468897,-0.007842926309,,,,,,,,,,,,,,,,,,,,
TEST_STATE,0.5,1726608206988402176,,,,,,,,,,303.0159912,0,0.02356199361,-0.6488524079,-0.76035887,-0.01702778973,68.33302307,2,1,0,0.0008827623096,0.01243687887,0.01058193576,0.0007999666268,-0.0009152346756,-0.00547019532,-0.008042084053,-0.5825414658,-0.3796849549,9.755929947
TEST_STATE,0.5,1726608206988878336,4,303.0169983,0,-0.06088410318,-0.02169055864,0.9997956753,-0.005834445357,-0.003005067818,-0.005979727954,,,,,,,,,,,,,,,,,,,,
TEST_STATE,0.5,1726608206989871616,4,303.0180054,0,-0.06030282378,-0.01828021929,0.9989310503,-0.006050839555,-0.003962544724,-0.004518561531,,,,,,,,,,,,,,,,,,,,
TEST_STATE,0.5,1726608206990394880,,,,,,,,,,303.0180054,0,0.02355705388,-0.6488446593,-0.7603656054,-0.01702863537,68.33302307,2,1,0,0.0008827623096,0.01243687887,0.01058193576,0.0007999666268,-0.006186924875,-0.00100008375,-0.01268541999,-0.5960814357,-0.3254600465,9.804791451
TEST_STATE,0.5,1726608206990864128,4,303.0190125,0,-0.05645403266,-0.01533624344,0.9875751734,-0.006433569361,-0.0004675819073,0.0005488633178,,,,,,,,,,,,,,,,,,,,
TEST_STATE,0.5,1726608206991855616,4,303.019989,0,-0.0516570285,-0.008626795374,0.9819257259,-0.009584471583,-0.004922208376,-0.003037409391,,,,,,,,,,,,,,,,,,,,
TEST_STATE,0.5,1726608206992385792,,,,,,,,,,303.019989,0,0.02355039865,-0.648837328,-0.7603720427,-0.0170300696,68.33302307,2,1,0,0.0008827623096,0.01243687887,0.01058193576,0.0007999666268,-0.004069465213,-0.007312764414,-0.007040808443,-0.5951102972,-0.1490679681,9.801548004
TEST_STATE,0.5,1726608206992846080,4,303.0209961,0,-0.05649530888,0.002149086446,0.9871073961,-0.01393803954,-0.009511951357,-0.005822943524,,,,,,,,,,,,,,,,,,,,
TEST_STATE,0.5,1726608206993841152,4,303.0220032,0,-0.05742944032,0.01498513948,0.9947423339,-0.01709532365,-0.009413797408,-0.009912657551,,,,,,,,,,,,,,,,,,,,
TEST_STATE,0.5,1726608206994380544,,,,,,,,,,303.0220032,0,0.02354174852,-0.6488335133,-0.7603755593,-0.01703044958,68.33302307,2,1,0,0.0008827623096,0.01243687887,0.01058193576,0.0007999666268,-0.007432040758,-0.005384136923,-0.003622650634,-0.5031140447,-0.08736716211,9.604020119
TEST_STATE,0.5,1726608206994835200,4,303.0230103,0,-0.0592523776,0.02899907529,1.000256896,-0.00968477875,-0.01118637808,-0.02049656771,,,,,,,,,,,,,,,,,,,,
TEST_STATE,0.5,1726608206995828480,4,303.0239868,0,-0.05684223399,0.03445684537,1.009901166,-0.008036296815,-0.006270844955,-0.02459190413,,,,,,,,,,,,,,,,,,,,
TEST_STATE,0.5,1726608206996373504,,,,,,,,,,303.0239868,0,0.0235268455,-0.648827672,-0.7603809237,-0.01703357697,68.33302307,2,1,0,0.0008827623096,0.01243687887,0.01058193576,0.0007999666268,-0.01620568708,-0.01327636372,-0.01290610526,-0.5766283274,0.1577175707,9.757660866
TEST_STATE,0.5,1726608206996820992,4,303.0249939,0,-0.05876795948,0.03702934459,1.009306908,-0.005570982117,-0.00196697982,-0.02756618708,,,,,,,,,,,,,,,,,,,,
TEST_STATE,0.5,1726608206997812480,4,303.026001,0,-0.0544555895,0.02792690322,1.005333424,-0.002748044906,0.002031169832,-0.0315743275,,,,,,,,,,,,,,,,,,,,
TEST_STATE,0.5,1726608206998364416,,,,,,,,,,303.026001,0,0.0235109441,-0.6488117576,-0.7603949904,-0.01703428105,68.33302307,2,1,0,0.0008827623096,0.01243687887,0.01058193576,0.0007999666268,-0.004275179468,-0.0101119671,-0.03006662615,-0.5674192309,0.3719316423,9.903777122
TEST_STATE,0.5,1726608206998802944,4,303.0270081,0,-0.0578128323,0.02686859481,0.9987767935,0.000652709743,0.00137758418,-0.03379747644,,,,,,,,,,,,,,,,,,,,
TEST_STATE,0.5,1726608206999803904,4,303.0280151,0,-0.05705609545,0.02020672709,0.9931648374,-0.005481129512,0.00155263464,-0.03285053,,,,,,,,,,,,,,,,,,,,
TEST_STATE,0.5,1726608207000365312,,,,,,,,,,303.0280151,0,0.02350502089,-0.6487873197,-0.7604160309,-0.01703377627,68.33302307,2,1,0,0.0008827623096,0.01243687887,0.01058193576,0.0007999666268,-0.0007744317409,0.0002909284085,-0.03464267775,-0.5477252603,0.29812029,9.864177704
TEST_STATE,0.5,1726608207000804096,4,303.0289917,0,-0.06251847744,0.01442044601,0.9923298955,-0.004494803958,-0.0004604225978,-0.03934566304,,,,,,,,,,,,,,,,,,,,
TEST_STATE,0.5,1726608207001803264,4,303.0299988,0,-0.06245436519,0.01466182526,0.9989778996,-0.001039918978,-0.002997892909,-0.03813318536,,,,,,,,,,,,,,,,,,,,
TEST_STATE,0.5,1726608207002364160,,,,,,,,,,303.0299988,0,0.02350335382,-0.6487602592,-0.7604390979,-0.01703525707,68.33302307,2,1,0,0.0008827623096,0.01243687887,0.01058193576,0.0007999666268,-0.001582412282,-0.001070971484,-0.03658007458,-0.5713562369,0.2067233622,9.729152679
TEST_STATE,0.5,1726608207002801408,4,303.0310059,0,-0.05979486555,0.01527750492,1.000160694,-0.004264264368,-0.01167105138,-0.03947249055,,,,,,,,,,,,,,,,,,,,
TEST_STATE,0.5,1726608207003798784,4,303.0320129,0,-0.05975567549,0.01259641163,1.000865936,-0.002474298701,-0.00680859806,-0.04184669256,,,,,,,,,,,,,,,,,,,,
TEST_STATE,0.5,1726608207004361216,,,,,,,,,,303.0320129,0,0.02349975146,-0.64872998,-0.7604650855,-0.01703451388,68.33302307,2,1,0,0.0008827623096,0.01243687887,0.01058193576,0.0007999666268,0.0003480789019,-0.005561424419,-0.04327078909,-0.6296309829,0.1252953857,9.782176018
TEST_STATE,0.5,1726608207004795136,4,303.0329895,0,-0.05820225924,0.01597241871,1.000522017,-0.0009942920879,-0.004539371468,-0.04179212078,,,,,,,,,,,,,,,,,,,,
TEST_STATE,0.5,1726608207005790720,4,303.0339966,0,-0.05152736604,0.02089929767,0.9990891218,-0.0005871942267,0.0002741245553,-0.04469259828,,,,,,,,,,,,,,,,,,,,
TEST_STATE,0.5,1726608207006356224,,,,,,,,,,303.0339966,0,0.02349143103,-0.6486967206,-0.7604938149,-0.01703025587,68.48892212,2,1,0,0.0008827623096,0.01243687887,0.01058193576,0.0007999666268,-0.002124085324,-0.01283657737,-0.0446914807,-0.5777715445,0.1302263439,9.817578316
TEST_STATE,0.5,1726608207006785792,4,303.0350037,0,-0.04510707036,0.03020041063,0.9956767559,0.002346029738,0.0008363235393,-0.05178510025,,,,,,,,,,,,,,,,,,,,
TEST_STATE,0.5,1726608207007779840,4,303.0360107,0,-0.0431603156,0.030155899,0.998339951,-0.0005246200599,-0.002342150779,-0.0534032546,,,,,,,,,,,,,,,,,,,,
TEST_STATE,0.5,1726608207008350208,,,,,,,,,,303.0360107,0,0.0234847106,-0.6486619711,-0.7605237365,-0.01702666841,68.48892212,2,1,0,0.0008827623096,0.01243687887,0.01058193576,0.0007999666268,0.001511723152,-0.002261896152,-0.04699808359,-0.5123575926,0.2067120373,9.799196243
TEST_STATE,0.5,1726608207008773120,4,303.0369873,0,-0.039420899,0.01774066314,0.9954186678,0.002316644415,-0.003741679015,-0.05298287794,,,,,,,,,,,,,,,,,,,,
TEST_STATE,0.5,1726608207009765376,4,303.0379944,0,-0.0387275666,0.001171529293,0.9934993386,-0.002042612992,-0.001251300331,-0.05834248289,,,,,,,,,,,,,,,,,,,,
TEST_STATE,0.5,1726608207010341888,,,,,,,,,,303.0379944,0,0.02348279022,-0.6486219764,-0.7605579495,-0.01702430658,68.48892212,2,1,0,0.0008827623096,0.01243687887,0.01058193576,0.0007999666268,0.002632375108,-0.003969465382,-0.05821670964,-0.4066822827,0.324840486,9.774973869
TEST_STATE,0.5,1726608207010756608,4,303.0390015,0,-0.03933620453,-0.01392963715,0.990636766,-0.004699731246,-0.001509477734,-0.05512905866,,,,,,,,,,,,,,,,,,,,
TEST_STATE,0.5,1726608207011751680,4,303.0400085,0,-0.0427111052,-0.02932383865,0.9968639016,-0.003137507942,-0.005464764778,-0.05324407294,,,,,,,,,,,,,,,,,,,,
TEST_STATE,0.5,1726608207012336384,,,,,,,,,,303.0400085,0,0.02347984351,-0.6485770345,-0.7605964541,-0.01702142134,68.48892212,2,1,0,0.0008827623096,0.01243687887,0.01058193576,0.0007999666268,0.001355604967,-0.004533026367,-0.06008473039,-0.3693531156,0.002255174099,9.737201691
TEST_STATE,0.5,1726608207012745728,4,303.0409851,0,-0.05193759128,-0.03110558912,1.002827287,-0.006070383359,-0.005696783308,-0.04826016352,,,,,,,,,,,,,,,,,,,,
TEST_STATE,0.5,1726608207013739008,4,303.0419922,0,-0.05310353264,-0.03398611397,0.9949454665,-0.00612902781,-0.005443487782,-0.04436568171,,,,,,,,,,,,,,,,,,,,
TEST_STATE,0.5,1726608207014329344,,,,,,,,,,303.0419922,0,0.02347400226,-0.6485332251,-0.7606340647,-0.01701942831,68.48892212,2,1,0,0.0008827623096,0.01243687887,0.01058193576,0.0007999666268,-0.002565386239,-0.007212083787,-0.05541352928,-0.414736867,-0.3072773516,9.755864143
TEST_STATE,0.5,1726608207014731520,4,303.0429993,0,-0.05272782966,-0.03080322966,0.9872387648,-0.01008890383,-0.009456990287,-0.041388724,,,,,,,,,,,,,,,,,,,,
TEST_STATE,0.5,1726608207015723008,4,303.0440063,0,-0.05533305183,-0.02282608487,0.9852605462,-0.01418067608,-0.01409607194,-0.04472108185,,,,,,,,,,,,,,,,,,,,
TEST_STATE,0.5,1.72661E+18,,,,,,,,,,303.0440063,0,0.02346480452,-0.6484947205,-0.7606671453,-0.01701871678,68.48892212,2,1,0,0.0008827623096,0.01243687887,0.01058193576,0.0007999666268,-0.005350163672,-0.007947122678,-0.04633668438,-0.5474924445,-0.3337205946,9.789740562
TEST_STATE,0.5,1726608207016713472,4,303.0450134,0,-0.05885248259,-0.01054529939,0.9948576093,-0.01796693355,-0.01681280509,-0.04601577669,,,,,,,,,,,,,,,,,,,,
TEST_STATE,0.5,1726608207017708544,4,303.04599,0,-0.0613158755,-6.02E-05,0.9988601208,-0.01878676377,-0.01251603104,-0.04698991776,,,,,,,,,,,,,,,,,,,,
TEST_STATE,0.5,1726608207018314752,,,,,,,,,,303.04599,0,0.0234486144,-0.6484600306,-0.7606972456,-0.01701871678,68.48892212,2,1,0,0.0008827623096,0.01243687887,0.01058193576,0.0007999666268,-0.0129959574,-0.01691448875,-0.04601787403,-0.5368120074,-0.2281296998,9.641572952
TEST_STATE,0.5,1726608207018702848,4,303.0469971,0,-0.07077988982,0.008105047047,1.001435995,-0.01496236864,-0.01117635425,-0.04998925328,,,,,,,,,,,,,,,,,,,,
TEST_STATE,0.5,1726608207019696128,4,303.0480042,0,-0.05347605795,0.0162931215,0.9960490465,-0.013960246,-0.002566243522,-0.04329969734,,,,,,,,,,,,,,,,,,,,
TEST_STATE,0.5,1726608207020313344,,,,,,,,,,303.0480042,0,0.02342497371,-0.648424089,-0.7607284188,-0.01702083647,68.48892212,2,1,0,0.0008827623096,0.01243687887,0.01058193576,0.0007999666268,-0.01814122498,-0.01654524356,-0.05007489398,-0.6079028845,0.01906164922,9.81829834
TEST_STATE,0.5,1726608207020694272,4,303.0490112,0,0.04661221802,0.1069362834,1.014473915,-0.02073476091,0.0004828309175,-0.03187912703,,,,,,,,,,,,,,,,,,,,
TEST_STATE,0.5,1726608207021691648,4,303.0499878,0,0.3276580572,0.3922021687,0.9684947133,-0.02746167593,-0.001179650193,-0.009173596278,,,,,,,,,,,,,,,,,,,,
TEST_STATE,0.5,1726608207022310400,,,,,,,,,,303.0499878,0,0.02340600826,-0.6483872533,-0.7607603669,-0.01702582277,68.48892212,2,1,0,0.0008827623096,0.01243687887,0.01058193576,0.0007999666268,-0.01122318767,-0.006087961607,-0.04831969365,-0.5847997069,0.1706822515,9.785543442
TEST_STATE,0.5,1726608207022688256,4,303.0509949,0,0.5281275511,0.5302001834,0.8096746802,-0.02236941829,-0.01101383381,-0.01033612713,,,,,,,,,,,,,,,,,,,,
TEST_STATE,0.5,1726608207023683840,4,303.052002,0,0.06267178059,0.1944094002,1.107268333,-0.03155504912,-0.0133763589,-0.01589673012,,,,,,,,,,,,,,,,,,,,
TEST_STATE,0.5,1726608207024305152,,,,,,,,,,303.052002,0,0.02339001,-0.6483646035,-0.7607798576,-0.01703824103,68.48892212,2,1,0,0.0008827623096,0.01243687887,0.01058193576,0.0007999666268,-0.02669408917,-0.002290754113,-0.01251352299,3.024909735,3.620842695,9.637122154
TEST_STATE,0.5,1726608207024678656,4,303.053009,0,0.1753424406,0.01338066161,1.04502964,-0.03946053982,-0.01953636296,-0.01978067867,,,,,,,,,,,,,,,,,,,,
TEST_STATE,0.5,1726608207025672448,4,303.0539856,0,0.301230967,0.5670183897,0.9900999069,-0.03588058054,-0.02836527303,-0.01733133011,,,,,,,,,,,,,,,,,,,,
TEST_STATE,0.5,1726608207026298368,,,,,,,,,,303.0539856,0,0.02336459048,-0.6483537555,-0.7607895732,-0.01705213077,68.48892212,2,1,0,0.0008827623096,0.01243687887,0.01058193576,0.0007999666268,-0.02656341344,-0.01846122555,-0.01810630038,2.069708586,2.935584068,9.832584381
TEST_STATE,0.5,1726608207026665472,4,303.0549927,0,-0.04130932689,0.1723879874,1.079131365,-0.0420855172,-0.03853163496,0.03987089545,,,,,,,,,,,,,,,,,,,,
TEST_STATE,0.5,1726608207027657472,4,303.0559998,0,-0.1011010557,-0.1733688116,0.9120045304,-0.05903634429,-0.03978717327,0.09836111963,,,,,,,,,,,,,,,,,,,,
TEST_STATE,0.5,1726608207028290048,,,,,,,,,,303.0559998,0,0.02332467772,-0.6483397484,-0.760802567,-0.0170608405,68.48892212,2,1,0,0.0008827623096,0.01243687887,0.01058193576,0.0007999666268,-0.03734567016,-0.03110570274,-0.0218624603,3.081489325,4.008994579,9.613143921
TEST_STATE,0.5,1726608207028648704,4,303.0570068,0,0.03350161016,0.4360990524,1.038237691,-0.07159684598,-0.04022619873,0.1249573976,,,,,,,,,,,,,,,,,,,,
TEST_STATE,0.5,1726608207029643776,4,303.0580139,0,0.04012684524,0.2828708291,0.8690623045,-0.06594496965,-0.0394542478,0.1537926048,,,,,,,,,,,,,,,,,,,,
TEST_STATE,0.5,1726608207030284544,,,,,,,,,,303.0580139,0,0.02326601744,-0.6483724117,-0.760776341,-0.01707076095,68.48892212,2,1,0,0.0008827623096,0.01243687887,0.01058193576,0.0007999666268,-0.05623011291,-0.04517867416,0.1030921638,-1.954137683,-2.315995693,9.519426346
TEST_STATE,0.5,1726608207030638336,4,303.0589905,0,-0.1916127652,-0.001891791821,1.001676798,-0.07226763666,-0.03107009083,0.1952208132,,,,,,,,,,,,,,,,,,,,
TEST_STATE,0.5,1726608207031631872,4,303.0599976,0,-0.1539825201,0.3231017292,1.07754612,-0.07109425217,-0.02679323405,0.2150810361,,,,,,,,,,,,,,,,,,,,
TEST_STATE,0.5,1726608207032277504,,,,,,,,,,303.0599976,0,0.02319432236,-0.6484724879,-0.7606928945,-0.01708720624,68.48892212,2,1,0,0.0008827623096,0.01243687887,0.01058193576,0.0007999666268,-0.06926830113,-0.04211786762,0.1541695446,0.8018451929,4.949531078,9.218049049
TEST_STATE,0.5,1726608207032624384,4,303.0610046,0,-0.1054451391,0.2835238874,1.035868287,-0.0556968078,-0.02231577039,0.2264535874,,,,,,,,,,,,,,,,,,,,
TEST_STATE,0.5,1726608207033616384,4,303.0620117,0,-0.1483893394,0.1172411889,0.9800071716,-0.04985385388,-0.01812725514,0.2415669411,,,,,,,,,,,,,,,,,,,,
TEST_STATE,0.5,1726608207034268928,,,,,,,,,,303.0620117,0,0.02312545478,-0.6486176848,-0.7605704665,-0.01711392775,68.48892212,2,1,0,0.0008827623096,0.01243687887,0.01058193576,0.0007999666268,-0.07161844522,-0.02728521451,0.2218097299,-2.300527096,1.700576305,10.84588718
TEST_STATE,0.5,1726608207034607616,4,303.0629883,0,-0.1815475821,0.1804706752,1.059946895,-0.0580490157,-0.01175452769,0.2375369072,,,,,,,,,,,,,,,,,,,,
TEST_STATE,0.5,1726608207035602944,4,303.0639954,0,-0.1887438744,0.08680023998,1.147360682,-0.0637370944,0.0002095084637,0.2286701649,,,,,,,,,,,,,,,,,,,,
TEST_STATE,0.5,1726608207036263936,,,,,,,,,,303.0639954,0,0.02307388186,-0.6487948895,-0.760420382,-0.01713739522,68.48892212,2,1,0,0.0008827623096,0.01243687887,0.01058193576,0.0007999666268,-0.0443126373,-0.01984652691,0.2395911515,-1.227122903,1.322479844,9.580026627
TEST_STATE,0.5,1726608207036597248,4,303.0650024,0,-0.1349948347,0.002853147686,1.160041332,-0.07650087774,0.008105650544,0.2356086522,,,,,,,,,,,,,,,,,,,,
TEST_STATE,0.5,1726608207037590528,4,303.0660095,0,-0.1066449359,0.09230232239,1.15518558,-0.0840016678,0.008725253865,0.233249858,,,,,,,,,,,,,,,,,,,,
TEST_STATE,0.5,1726608207038256640,,,,,,,,,,303.0660095,0,0.02303443477,-0.6489734054,-0.7602686286,-0.01716586575,68.48892212,2,1,0,0.0008827623096,0.01243687887,0.01058193576,0.0007999666268,-0.0636106804,-0.002319787163,0.2261484563,-1.941642046,1.215486169,11.34554768
TEST_STATE,0.5,1726608207038583296,4,303.0669861,0,-0.04905510321,0.03506910056,1.032469273,-0.08535720408,-0.003911310807,0.2385631651,,,,,,,,,,,,,,,,,,,,
TEST_STATE,0.5,1726608207039575040,4,303.0679932,0,0.04790783301,-0.03635718673,0.8484652042,-0.08608248085,-0.02882766351,0.2549929619,,,,,,,,,,,,,,,,,,,,
TEST_STATE,0.5,1726608207040253184,,,,,,,,,,303.0679932,0,0.02299259603,-0.6491495967,-0.7601183057,-0.0172191523,68.48892212,2,1,0,0.0008827623096,0.01243687887,0.01058193576,0.0007999666268,-0.08499991894,0.008742148988,0.2330371737,-0.9285745621,0.4837516546,11.37673187
TEST_STATE,0.5,1726608207040571392,4,303.0690002,0,0.1012377292,0.07148644328,0.7140231133,-0.0900529325,-0.05297002196,0.2434052974,,,,,,,,,,,,,,,,,,,,
TEST_STATE,0.5,1726608207041566976,4,303.0700073,0,0.1027025729,-0.03456697613,0.6112312078,-0.07899416983,-0.08065129817,0.2176936865,,,,,,,,,,,,,,,,,,,,
TEST_STATE,0.5,1726608207042248192,,,,,,,,,,303.0700073,0,0.02293333784,-0.6493355632,-0.7599599361,-0.01727094688,68.48892212,2,1,0,0.0008827623096,0.01243687887,0.01058193576,0.0007999666268,-0.08467987925,-0.03070657514,0.2508494854,0.4768660367,-0.4079276621,8.265398026
TEST_STATE,0.5,1726608207042561536,4,303.0710144,0,0.04592083767,-0.1725454628,0.6107943654,-0.07534239441,-0.1053349674,0.2059340626,,,,,,,,,,,,,,,,,,,,
TEST_STATE,0.5,1726608207043555072,4,303.071991,0,-0.1062544882,-0.1491627991,0.8305692077,-0.07841444016,-0.1232477725,0.1825876534,,,,,,,,,,,,,,,,,,,,
TEST_STATE,0.5,1726608207044240896,,,,,,,,,,303.071991,0,0.02283949032,-0.6495158076,-0.7598083019,-0.01729059406,68.48892212,2,1,0,0.0008827623096,0.01243687887,0.01058193576,0.0007999666268,-0.08056478202,-0.0856904909,0.2158271521,1.171050787,0.1866163313,5.757611275
TEST_STATE,0.5,1726608207044547840,4,303.072998,0,-0.3367845416,-0.3125877976,1.135920525,-0.08731008321,-0.1126197129,0.1595588475,,,,,,,,,,,,,,,,,,,,
TEST_STATE,0.5,1726608207045539584,4,303.0740051,0,-0.4971173406,-0.4798240662,1.295356274,-0.098251082,-0.09803576022,0.1438851804,,,,,,,,,,,,,,,,,,,,
TEST_STATE,0.5,1726608207046232320,,,,,,,,,,303.0740051,0,0.02271036617,-0.6496699452,-0.7596808076,-0.01727504469,68.31188965,2,1,0,0.0008827623096,0.01243687887,0.01058193576,0.0007999666268,-0.07499165833,-0.1302341968,0.1802364886,-0.9481114745,-1.935170889,7.7521348
TEST_STATE,0.5,1726608207046530560,4,303.0750122,0,-0.3900963962,-0.3311802149,1.192003489,-0.1068118736,-0.09890779108,0.09211777896,,,,,,,,,,,,,,,,,,,,
TEST_STATE,0.5,1726608207047525888,4,303.0759888,0,-0.3363885581,-0.2182796299,1.042117596,-0.1033032611,-0.1070233285,0.02938059717,,,,,,,,,,,,,,,,,,,,
TEST_STATE,0.5,1726608207048227328,,,,,,,,,,303.0759888,0,0.02256977186,-0.6497942209,-0.7595790029,-0.01726223901,68.31188965,2,1,0,0.0008827623096,0.01243687887,0.01058193576,0.0007999666268,-0.09739313275,-0.09968655556,0.1365524828,-5.309000969,-4.917656898,13.3721838
TEST_STATE,0.5,1726608207048520448,4,303.0769958,0,-0.4309874177,-0.4292626977,0.8844125867,-0.1015546098,-0.1154295504,0.0004747882485,,,,,,,,,,,,,,,,,,,,
TEST_STATE,0.5,1726608207049513984,4,303.0780029,0,-0.3885766268,-0.465467751,0.7900750637,-0.1079592705,-0.1195628121,-0.03342241049,,,,,,,,,,,,,,,,,,,,
TEST_STATE,0.5,1726608207050220032,,,,,,,,,,303.0780029,0,0.02242643386,-0.6498582959,-0.7595282793,-0.0172697641,68.31188965,2,1,0,0.0008827623096,0.01243687887,0.01058193576,0.0007999666268,-0.1049632952,-0.1082108021,0.02145152912,-3.060431957,-1.877788544,10.16412163
TEST_STATE,0.5,1726608207050506752,4,303.07901,0,-0.3443593383,-0.2991862893,0.9209262133,-0.104768917,-0.109412089,-0.07299770415,,,,,,,,,,,,,,,,,,,,
TEST_STATE,0.5,1726608207051498496,4,303.0799866,0,-0.3367444277,-0.3203937709,1.118077397,-0.106803,-0.0948003754,-0.1000082046,,,,,,,,,,,,,,,,,,,,
TEST_STATE,0.5,1726608207052210944,,,,,,,,,,303.0799866,0,0.02227006853,-0.6498557925,-0.7595347762,-0.01727411337,68.31188965,2,1,0,0.0008827623096,0.01243687887,0.01058193576,0.0007999666268,-0.1045370027,-0.1238715872,-0.03931447864,-4.1814785,-5.158784389,7.42380476
TEST_STATE,0.5,1726608207052489216,4,303.0809937,0,-0.2213377506,-0.1845685691,1.12087667,-0.1003952697,-0.09163602442,-0.1433135569,,,,,,,,,,,,,,,,,,,,
TEST_STATE,0.5,1726608207053484544,4,303.0820007,0,-0.1579538882,-0.1022825465,1.061501384,-0.0845361352,-0.09728356451,-0.1863002479,,,,,,,,,,,,,,,,,,,,
TEST_STATE,0.5,1726608207054205696,,,,,,,,,,303.0820007,0,0.02211737633,-0.649803102,-0.7595841289,-0.01728322916,68.31188965,2,1,0,0.0008827623096,0.01243687887,0.01058193576,0.0007999666268,-0.1037157327,-0.09660815448,-0.1105478555,-3.177899361,-2.585131884,11.0217638
TEST_STATE,0.5,1726608207054479104,4,303.0830078,0,-0.2318461537,-0.2449553013,0.9250203967,-0.07963564247,-0.1052604467,-0.215187043,,,,,,,,,,,,,,,,,,,,
TEST_STATE,0.5,1726608207055472896,4,303.0840149,0,-0.2814927995,-0.2311403155,0.9253903627,-0.08308433741,-0.1075453907,-0.2499710917,,,,,,,,,,,,,,,,,,,,
TEST_STATE,0.5,1726608207056198912,,,,,,,,,,303.0840149,0,0.02198007889,-0.6496907473,-0.7596839666,-0.01729466952,68.31188965,2,1,0,0.0008827623096,0.01243687887,0.01058193576,0.0007999666268,-0.08367591351,-0.09763459861,-0.1951241493,-1.301645517,-0.7256934047,10.52430439
TEST_STATE,0.5,1726608207056465664,4,303.0849915,0,-0.2223513722,-0.1556218565,0.9374140501,-0.06958258897,-0.1001454815,-0.2856006026,,,,,,,,,,,,,,,,,,,,
TEST_STATE,0.5,1726608207057457408,4,303.0859985,0,-0.2442596406,-0.1806182563,1.008793712,-0.06027658284,-0.09675702453,-0.296204567,,,,,,,,,,,,,,,,,,,,
TEST_STATE,0.5,1726608207058190080,,,,,,,,,,303.0859985,0,0.02184362337,-0.649523139,-0.7598313093,-0.01729337312,68.31188965,2,1,0,0.0008827623096,0.01243687887,0.01058193576,0.0007999666268,-0.07919591665,-0.1120532006,-0.2556959987,-2.902705193,-2.7366817,8.648283958
TEST_STATE,0.5,1726608207058448384,4,303.0870056,0,-0.2720510662,-0.1730400473,1.077695012,-0.05601206794,-0.09362389147,-0.3174477518,,,,,,,,,,,,,,,,,,,,
TEST_STATE,0.5,1726608207059449856,4,303.0880127,0,-0.232900247,-0.1476728022,1.080760479,-0.0458202213,-0.08744414151,-0.3430781364,,,,,,,,,,,,,,,,,,,,
TEST_STATE,0.5,1726608207060190976,,,,,,,,,,303.0880127,0,0.02171527408,-0.649312079,-0.7600156665,-0.01728286222,68.31188965,2,1,0,0.0008827623096,0.01243687887,0.01058193576,0.0007999666268,-0.05596758053,-0.09740144014,-0.3084689379,-2.17172575,-1.490980983,9.803238869
TEST_STATE,0.5,1726608207060450304,4,303.0889893,0,-0.1962040365,-0.1679790914,0.9888338447,-0.04930756241,-0.08202271163,-0.3515542746,,,,,,,,,,,,,,,,,,,,
TEST_STATE,0.5,1726608207061449728,4,303.0899963,0,-0.1746686101,-0.167631954,0.9242814183,-0.05108264834,-0.08279937506,-0.3714101315,,,,,,,,,,,,,,,,,,,,
TEST_STATE,0.5,1726608207062190080,,,,,,,,,,303.0899963,0,0.02160574868,-0.6490652561,-0.760229826,-0.01726738364,68.31188965,2,1,0,0.0008827623096,0.01243687887,0.01058193576,0.0007999666268,-0.04461241513,-0.08995373547,-0.3480330706,-2.440474987,-1.46972394,10.8082571
TEST_STATE,0.5,1726608207062448384,4,303.0910034,0,-0.1559177637,-0.1779917926,0.9461781383,-0.0537205264,-0.08434163779,-0.3792160451,,,,,,,,,,,,,,,,,,,,
TEST_STATE,0.5,1726608207063446016,4,303.0920105,0,-0.144404754,-0.1879267544,1.005801558,-0.0563483648,-0.08154878765,-0.3719635904,,,,,,,,,,,,,,,,,,,,
TEST_STATE,0.5,1726608207064187136,,,,,,,,,,303.0920105,0,0.02150289901,-0.6487935781,-0.7604649663,-0.01725497283,68.31188965,2,1,0,0.0008827623096,0.01243687887,0.01058193576,0.0007999666268,-0.05016833544,-0.08331619948,-0.3733504713,-1.636733055,-1.707931519,8.892168999
TEST_STATE,0.5,1726608207064442880,4,303.0929871,0,-0.1216611862,-0.1445363015,1.042469978,-0.05535041913,-0.08204282075,-0.3685004413,,,,,,,,,,,,,,,,,,,,
TEST_STATE,0.5,1726608207065439232,4,303.0939941,0,-0.08101041615,-0.1217567772,1.05245626,-0.05081346259,-0.08202475309,-0.3528111577,,,,,,,,,,,,,,,,,,,,
TEST_STATE,0.5,1726608207066182912,,,,,,,,,,303.0939941,0,0.02139831707,-0.6485101581,-0.760709703,-0.01724846847,68.31188965,2,1,0,0.0008827623096,0.01243687887,0.01058193576,0.0007999666268,-0.05500881374,-0.08493077755,-0.3786158562,-1.378120899,-1.857570291,9.825662613
TEST_STATE,0.5,1726608207066434560,4,303.0950012,0,-0.04227384552,-0.1033218056,1.044574261,-0.05657443404,-0.0781365931,-0.3283347785,,,,,,,,,,,,,,,,,,,,
TEST_STATE,0.5,1726608207067428864,4,303.0960083,0,0.02794136479,-0.05348499119,0.9835865498,-0.05792150274,-0.08274403214,-0.3211202621,,,,,,,,,,,,,,,,,,,,
TEST_STATE,0.5,1726608207068176896,,,,,,,,,,303.0960083,0,0.02129819617,-0.6477583647,-0.7613498569,-0.01737264358,68.31188965,2,1,0,0.0008784160018,0.01243043318,0.01057653874,0.0007962104864,-0.04961457849,-0.08456779271,-0.357408613,-0.7958640456,-1.099174738,10.41773987
TEST_STATE,0.5,1726608207068422400,4,303.0969849,0,0.07177349925,-0.143252939,0.9119875431,-0.06242482364,-0.09378504753,-0.3293427825,,,,,,,,,,,,,,,,,,,,
TEST_STATE,0.5,1726608207069414912,4,303.0979919,0,0.01766490191,-0.08432856202,1.019491315,-0.07624542713,-0.1021309271,-0.3282907009,,,,,,,,,,,,,,,,,,,,
TEST_STATE,0.5,1726608207070168576,,,,,,,,,,303.0979919,0,0.0211937353,-0.6475040317,-0.7615693212,-0.01736643352,68.31188965,2,1,0,0.0008784160018,0.01243043318,0.01057653874,0.0007962104864,-0.05780500174,-0.08305145055,-0.3174892664,0.2698376179,-0.5557845235,9.729753494
TEST_STATE,0.5,1726608207070406656,4,303.098999,0,0.0577308014,0.1063782573,0.9794149995,-0.09019006044,-0.09875967354,-0.3275140822,,,,,,,,,,,,,,,,,,,,
TEST_STATE,0.5,1726608207071401984,4,303.1000061,0,0.01468823105,-0.04378961027,0.9543921351,-0.08077962697,-0.1110020429,-0.3098431826,,,,,,,,,,,,,,,,,,,,
TEST_STATE,0.5,1726608207072163328,,,,,,,,,,303.1000061,0,0.02107339725,-0.647258997,-0.7617810965,-0.01736195013,68.31188965,2,1,0,0.0008784160018,0.01243043318,0.01057653874,0.0007962104864,-0.07346239686,-0.1065111011,-0.3339484632,0.4064667821,-1.212179661,9.582742691
TEST_STATE,0.5,1726608207072396544,4,303.1010132,0,0.04164277017,-0.2161535323,1.01456821,-0.08536238968,-0.1178667247,-0.3047517836,,,,,,,,,,,,,,,,,,,,
TEST_STATE,0.5,1726608207073390336,4,303.1019897,0,0.05571135879,0.1872194111,1.045069575,-0.08910430968,-0.1098501608,-0.3263746798,,,,,,,,,,,,,,,,,,,,
TEST_STATE,0.5,1726608207074156288,,,,,,,,,,303.1019897,0,0.02093390003,-0.6470150352,-0.7619920969,-0.01735913754,68.31188965,2,1,0,0.0008784160018,0.01243043318,0.01057653874,0.0007962104864,-0.085222736,-0.110087052,-0.3156557679,0.3458018899,0.433434695,9.278878212
TEST_STATE,0.5,1726608207074383104,4,303.1029968,0,0.04870494828,0.03972639143,0.9878923297,-0.08123636246,-0.1026238427,-0.3109851778,,,,,,,,,,,,,,,,,,,,
TEST_STATE,0.5,1726608207075375104,4,303.1040039,0,0.003863733262,-0.2913314104,0.9993091822,-0.08397340775,-0.1068344861,-0.2922101021,,,,,,,,,,,,,,,,,,,,
TEST_STATE,0.5,1726608207076147712,,,,,,,,,,303.1040039,0,0.02078616433,-0.6467752457,-0.7621997595,-0.01735879481,68.31188965,2,1,0,0.0008784160018,0.01243043318,0.01057653874,0.0007962104864,-0.08817713708,-0.1158741191,-0.3236747682,0.605478406,0.5792219043,10.3821106
TEST_STATE,0.5,1726608207076366080,4,303.105011,0,0.03995587677,0.1713978946,1.035916924,-0.08620197326,-0.09876610339,-0.3192765415,,,,,,,,,,,,,,,,,,,,
TEST_STATE,0.5,1726608207077361664,4,303.1059875,0,0.06910772622,0.2465182841,1.053081274,-0.07451678813,-0.08912444115,-0.311057955,,,,,,,,,,,,,,,,,,,,
TEST_STATE,0.5,1726608207078142464,,,,,,,,,,303.1059875,0,0.02064204402,-0.6465436816,-0.7624002099,-0.01735722274,68.31188965,2,1,0,0.0008784160018,0.01243043318,0.01057653874,0.0007962104864,-0.07926633209,-0.1061515212,-0.293571949,0.09580135345,-2.72751236,9.601079941
TEST_STATE,0.5,1726608207078356224,4,303.1069946,0,0.03693819791,-0.09831675887,0.9552063942,-0.06225151941,-0.0858579576,-0.2845601141,,,,,,,,,,,,,,,,,,,,
TEST_STATE,0.5,1726608207079349760,4,303.1080017,0,0.0291495882,0.1356794983,1.025290489,-0.06168439984,-0.08321451396,-0.2982920408,,,,,,,,,,,,,,,,,,,,
TEST_STATE,0.5,1726608207080141056,,,,,,,,,,303.1080017,0,0.02051156759,-0.6463115215,-0.7626004219,-0.01735901274,68.31188965,2,1,0,0.0008784160018,0.01243043318,0.01057653874,0.0007962104864,-0.0756431371,-0.09069072455,-0.324015975,0.7385237813,3.728101254,10.41086769
TEST_STATE,0.5,1726608207080348416,4,303.1090088,0,0.127089113,0.2518246472,0.9973241091,-0.05030243844,-0.07747133821,-0.3074728549,,,,,,,,,,,,,,,,,,,,
TEST_STATE,0.5,1726608207081346048,4,303.1099854,0,-0.02437052131,0.06564413011,1.025542378,-0.04283904657,-0.06809942424,-0.2751534581,,,,,,,,,,,,,,,,,,,,
TEST_STATE,0.5,1726608207082138112,,,,,,,,,,303.1099854,0,0.02039663307,-0.6460801959,-0.762799561,-0.01735878736,68.31188965,2,1,0,0.0008784160018,0.01243043318,0.01057653874,0.0007962104864,-0.05617760122,-0.08503751457,-0.2902117968,0.1993165165,-0.1627776772,9.624266624
TEST_STATE,0.5,1726608207082342912,4,303.1109924,0,-0.07665359974,0.1334656775,1.114345312,-0.03518527001,-0.04926728457,-0.2534893453,,,,,,,,,,,,,,,,,,,,
TEST_STATE,0.5,1726608207083338752,4,303.1119995,0,0.01685795188,0.2901375592,1.057360172,-0.01352069154,-0.02602933347,-0.2455370277,,,,,,,,,,,,,,,,,,,,
TEST_STATE,0.5,1726608207084133120,,,,,,,,,,303.1119995,0,0.02030165307,-0.6458624005,-0.7629866004,-0.0173507221,68.31188965,2,1,0,0.0008784160018,0.01243043318,0.01057653874,0.0007962104864,-0.03886633739,-0.07035668939,-0.2867971361,0.3365531564,1.338058829,9.919559479
TEST_STATE,0.5,1726608207084333824,4,303.1130066,0,-0.005916537717,0.1812075675,1.076981068,0.01408326626,-0.01382733788,-0.2390488535,,,,,,,,,,,,,,,,,,,,
TEST_STATE,0.5,1726608207085327872,4,303.1140137,0,-0.05000349879,0.1108049154,1.073061347,0.03353348374,0.006427987479,-0.235187456,,,,,,,,,,,,,,,,,,,,
TEST_STATE,0.5,1726608207086126848,,,,,,,,,,303.1140137,0,0.02024320327,-0.6456617117,-0.7631582022,-0.01734468341,68.31188965,2,1,0,0.0008784160018,0.01243043318,0.01057653874,0.0007962104864,-0.01331450511,-0.02663975768,-0.2429352403,-0.1644780487,2.777830601,10.74789238
TEST_STATE,0.5,1726608207086321408,4,303.1149902,0,-0.04131622985,0.1219152883,1.061250806,0.05237813666,0.02905991301,-0.2052032948,,,,,,,,,,,,,,,,,,,,
TEST_STATE,0.5,1726608207087313920,4,303.1159973,0,-0.03310286626,0.05668897927,1.063297391,0.06146488339,0.04664886743,-0.1499757171,,,,,,,,,,,,,,,,,,,,
TEST_STATE,0.5,1726608207088118784,,,,,,,,,,303.1159973,0,0.02023927309,-0.6454786062,-0.7633134723,-0.01733193919,68.14013672,2,1,0,0.0008784160018,0.01243043318,0.01057653874,0.0007962104864,0.04049214348,0.004248952493,-0.2366729826,-0.4829497039,0.8720700741,10.591362
TEST_STATE,0.5,1726608207088305408,4,303.1170044,0,-0.02663292922,0.02920990996,1.040592194,0.06861359626,0.06031677499,-0.1187769026,,,,,,,,,,,,,,,,,,,,
TEST_STATE,0.5,1726608207089300736,4,303.1180115,0,0.03338389844,0.04723454267,1.082864404,0.08131218702,0.07891970873,-0.09030970186,,,,,,,,,,,,,,,,,,,,
TEST_STATE,0.5,1726608207090113536,,,,,,,,,,303.1180115,0,0.02029079944,-0.6453282237,-0.7634397149,-0.01731161401,68.14013672,2,1,0,0.0008784160018,0.01243043318,0.01057653874,0.0007962104864,0.06751850247,0.04827423394,-0.1533149779,-0.3121612072,0.7068368196,10.38686752
TEST_STATE,0.5,1726608207090295552,4,303.118988,0,0.09377593547,0.04236776382,1.043336034,0.09268188477,0.08900979161,-0.04507699981,,,,,,,,,,,,,,,,,,,,
TEST_STATE,0.5,1726608207091289344,4,303.1199951,0,0.1338822097,-0.0458143279,1.01998353,0.09644648433,0.09506291151,-0.01304304227,,,,,,,,,,,,,,,,,,,,
TEST_STATE,0.5,1726608207092106240,,,,,,,,,,303.1199951,0,0.02038528398,-0.6452333331,-0.7635177374,-0.01729720086,68.14013672,2,1,0,0.0008784160018,0.01243043318,0.01057653874,0.0007962104864,0.08298640698,0.07750774175,-0.08840024471,0.240633443,0.3453237414,10.47307587
TEST_STATE,0.5,1726608207092282368,4,303.1210022,0,0.1800770611,-0.08134689182,1.008198023,0.09406257421,0.09420019388,0.01490603946,,,,,,,,,,,,,,,,,,,,
TEST_STATE,0.5,1726608207093274368,4,303.1220093,0,0.2267132849,-0.07920535654,0.9859116077,0.08613949269,0.08484810591,0.04663279653,,,,,,,,,,,,,,,,,,,,
TEST_STATE,0.5,1726608207094097408,,,,,,,,,,303.1220093,0,0.02050961927,-0.645193398,-0.7635484338,-0.01728349179,68.14013672,2,1,0,0.0008784160018,0.01243043318,0.01057653874,0.0007962104864,0.1010875627,0.09479216486,-0.007314541377,1.429983974,-0.3073533475,9.920830727
TEST_STATE,0.5,1726608207094265344,4,303.1229858,0,0.239233464,-0.1511843503,0.9629818797,0.06406524032,0.06967930496,0.0698184371,,,,,,,,,,,,,,,,,,,,
TEST_STATE,0.5,1726608207095260928,4,303.1239929,0,0.1840462387,-0.1643487364,0.9761422276,0.05066282675,0.05950047821,0.1085119098,,,,,,,,,,,,,,,,,,,,
TEST_STATE,0.5,1726608207096092416,,,,,,,,,,303.1239929,0,0.02063934691,-0.6452050209,-0.76353544,-0.01726833917,68.14013672,2,1,0,0.0008784160018,0.01243043318,0.01057653874,0.0007962104864,0.08852612972,0.08389002085,0.04691556469,2.284406662,-0.8914813995,9.671406746
TEST_STATE,0.5,1726608207096255744,4,303.125,0,0.1985695511,-0.1485451609,0.9790487289,0.03886877,0.04987988994,0.1552720219,,,,,,,,,,,,,,,,,,,,
TEST_STATE,0.5,1726608207097249536,4,303.1260071,0,0.2114770263,-0.1345350146,0.9906796813,0.02654324099,0.04408698902,0.179748252,,,,,,,,,,,,,,,,,,,,
TEST_STATE,0.5,1726608207098085632,,,,,,,,,,303.1260071,0,0.02073733322,-0.6452608109,-0.7634858489,-0.01725925319,68.14013672,2,1,0,0.0008784160018,0.01243043318,0.01057653874,0.0007962104864,0.0477773957,0.05413878337,0.1060126871,1.9423002,-1.812966704,9.477655411
TEST_STATE,0.5,1726608207098242304,4,303.1270142,0,0.1578516066,-0.1610329002,0.991150558,0.01812654361,0.04080630839,0.2081088424,,,,,,,,,,,,,,,,,,,,
TEST_STATE,0.5,1726608207099234304,4,303.1279907,0,0.1101276651,-0.1554097086,0.996378541,0.01463674847,0.0393781811,0.2440074831,,,,,,,,,,,,,,,,,,,,
