state,extension,timestamp,invalid_fields,scaledAccelX,scaledAccelY,scaledAccelZ,scaledGyroX,scaledGyroY,scaledGyroZ,deltaVelX,deltaVelY,deltaVelZ,deltaThetaX,deltaThetaY,deltaThetaZ,estOrientQuaternionW,estOrientQuaternionX,estOrientQuaternionY,estOrientQuaternionZ,estPressureAlt,estAttitudeUncertQuaternionW,estAttitudeUncertQuaternionX,estAttitudeUncertQuaternionY,estAttitudeUncertQuaternionZ,estAngularRateX,estAngularRateY,estAngularRateZ,estCompensatedAccelX,estCompensatedAccelY,estCompensatedAccelZ,estLinearAccelX,estLinearAccelY,estLinearAccelZ,estGravityVectorX,estGravityVectorY,estGravityVectorZ,current_altitude,speed
S,-0.5,1730147632975270720,,-1.00418305,-0.01383148,-0.02613422,-0.02881852,-0.00154831,-0.00338859,-0.00100425,-0.00001389,-0.00002533,-0.00002830,-0.00000208,-0.00000198,,,,,,,,,,,,,,,,,,,,,,,
S,-0.5,1730147632976270080,,-1.00420856,-0.01508519,-0.02606155,-0.02693692,-0.00125236,-0.00607627,-0.00100429,-0.00001376,-0.00002670,-0.00002824,-0.00000222,-0.00000645,,,,,,,,,,,,,,,,,,,,,,,
S,-0.5,1730147632975722414,,,,,,,,,,,,,,0.61057544,-0.34405011,-0.60791582,-0.37318307,-55.41472626,0.00416113,0.00710256,0.00403696,0.00678865,-0.02470220,-0.00073104,-0.00539769,-9.84831905,-0.16505931,-0.23427907,-0.07652283,0.16346331,0.00177440,9.77179623,0.32852262,0.23605347,0.00000000,0.00000000
S,-0.5,1730147632977268736,,-1.00281680,-0.01439065,-0.02429016,-0.02336931,0.00157855,-0.00695415,-0.00100308,-0.00001492,-0.00002459,-0.00002342,0.00000116,-0.00000765,,,,,,,,,,,,,,,,,,,,,,,
S,-0.5,1730147632978266368,,-1.00238955,-0.01367810,-0.02459862,-0.02688580,-0.00129485,-0.00615784,-0.00100202,-0.00001359,-0.00002398,-0.00002511,0.00000013,-0.00000658,,,,,,,,,,,,,,,,,,,,,,,
S,-0.5,1730147632977720576,,,,,,,,,,,,,,0.61056221,-0.34406224,-0.60791045,-0.37320232,-55.41472626,0.00416113,0.00710256,0.00403696,0.00678865,-0.02664004,-0.00459969,-0.00954316,-9.84874058,-0.13495252,-0.26182860,-0.07694817,0.19370389,-0.02581012,9.77179241,0.32865641,0.23601848,0.00000000,0.00000000
S,-0.5,1730147632979263232,,-1.00296319,-0.01431557,-0.02408967,-0.02986770,-0.00090533,-0.00641098,-0.00100272,-0.00001397,-0.00002428,-0.00003045,-0.00000189,-0.00000611,,,,,,,,,,,,,,,,,,,,,,,
S,-0.5,1730147632980259072,,-1.00417125,-0.01471760,-0.02475763,-0.03231921,0.00222081,-0.00706611,-0.00100413,-0.00001485,-0.00002447,-0.00003282,0.00000178,-0.00000703,,,,,,,,,,,,,,,,,,,,,,,
S,-0.5,1730147632979717120,,,,,,,,,,,,,,0.61054784,-0.34407297,-0.60790646,-0.37322223,-55.41472626,0.00416113,0.00710256,0.00403696,0.00678865,-0.02351337,-0.00225055,-0.00967471,-9.82650089,-0.13323699,-0.23515017,-0.05471516,0.19559546,0.00081587,9.77178574,0.32883245,0.23596604,0.00000000,0.00000000
S,-0.5,1730147632981253888,,-1.00271749,-0.01330979,-0.02603147,-0.02959560,0.00368031,-0.00798149,-0.00100337,-0.00001369,-0.00002601,-0.00003087,0.00000441,-0.00000802,,,,,,,,,,,,,,,,,,,,,,,
S,-0.5,1730147632982247936,,-0.99928135,-0.01138872,-0.02607579,-0.02937899,0.00283894,-0.01575941,-0.00099944,-0.00001129,-0.00002647,-0.00002855,0.00000346,-0.00001464,,,,,,,,,,,,,,,,,,,,,,,
S,-0.5,1730147632981711616,,,,,,,,,,,,,,0.61053389,-0.34408423,-0.60790056,-0.37324446,-55.41472626,0.00416113,0.00710256,0.00403696,0.00678865,-0.03122504,-0.00060208,-0.01012042,-9.84719467,-0.14560467,-0.24001360,-0.07541275,0.18340880,-0.00405608,9.77178192,0.32901347,0.23595752,0.00000000,0.00000000
S,-0.5,1730147632983240960,,-0.99761832,-0.01093329,-0.02554763,-0.02765870,-0.00138105,-0.01880158,-0.00099683,-0.00001041,-0.00002566,-0.00002790,-0.00000088,-0.00002072,,,,,,,,,,,,,,,,,,,,,,,
S,-0.5,1730147632984240128,,-0.99911499,-0.01332918,-0.02315490,-0.03077550,-0.00063342,-0.01866355,-0.00099831,-0.00001275,-0.00002342,-0.00002966,-0.00000211,-0.00001966,,,,,,,,,,,,,,,,,,,,,,,
S,-0.5,1730147632983711744,,,,,,,,,,,,,,0.61051881,-0.34409344,-0.60789436,-0.37327072,-55.41472626,0.00416113,0.00710256,0.00403696,0.00678865,-0.02695348,0.00107748,-0.01773037,-9.80118752,-0.11071903,-0.25961280,-0.02941513,0.21855268,-0.02363205,9.77177238,0.32927170,0.23598075,0.00000000,0.00000000
S,-0.5,1730147632985238528,,-1.00088215,-0.01431840,-0.02341272,-0.02524184,0.00126223,-0.01853839,-0.00100104,-0.00001490,-0.00002260,-0.00002724,0.00000116,-0.00001852,,,,,,,,,,,,,,,,,,,,,,,
S,-0.5,1730147632986235904,,-0.99987674,-0.01240660,-0.02492085,-0.02820236,-0.00148714,-0.02435970,-0.00100062,-0.00001307,-0.00002473,-0.00002590,-0.00000038,-0.00002326,,,,,,,,,,,,,,,,,,,,,,,
S,-0.5,1730147632985712128,,,,,,,,,,,,,,0.61050075,-0.34409857,-0.60789210,-0.37329921,-55.41472626,0.00416113,0.00710256,0.00403696,0.00678865,-0.02806371,-0.00449139,-0.02274973,-9.79011250,-0.12502313,-0.22968556,-0.01835251,0.20463127,0.00627990,9.77175999,0.32965440,0.23596546,0.00000000,0.00000000
S,-0.5,1730147632987235072,,-1.00052202,-0.01085457,-0.02213722,-0.03057552,0.00014111,-0.02962997,-0.00100008,-0.00001053,-0.00002312,-0.00003109,-0.00000103,-0.00003053,,,,,,,,,,,,,,,,,,,,,,,
S,-0.5,1730147632988234240,,-1.00356781,-0.01174619,-0.02138198,-0.03339470,0.00141747,-0.02800454,-0.00100322,-0.00001109,-0.00002063,-0.00003364,0.00000170,-0.00002998,,,,,,,,,,,,,,,,,,,,,,,
S,-0.5,1730147632987711744,,,,,,,,,,,,,,0.61048037,-0.34410098,-0.60789299,-0.37332886,-55.41472626,0.00416113,0.00710256,0.00403696,0.00678865,-0.02430513,-0.00276310,-0.02635495,-9.81274891,-0.12816544,-0.24250647,-0.04100323,0.20195620,-0.00659479,9.77174568,0.33012164,0.23591168,0.00000000,0.00000000
S,-0.5,1730147632989232384,,-1.00395179,-0.01076644,-0.02048900,-0.03376998,0.00053931,-0.03259765,-0.00100485,-0.00001123,-0.00002041,-0.00003460,0.00000111,-0.00003125,,,,,,,,,,,,,,,,,,,,,,,
S,-0.5,1730147632990229504,,-1.00411260,-0.00989456,-0.02068946,-0.03188450,0.00213345,-0.03160902,-0.00100421,-0.00000974,-0.00002037,-0.00003235,0.00000156,-0.00003325,,,,,,,,,,,,,,,,,,,,,,,
S,-0.5,1730147632989709824,,,,,,,,,,,,,,0.61045855,-0.34410077,-0.60789376,-0.37336352,-55.41472626,0.00416113,0.00710256,0.00403696,0.00678865,-0.03203996,-0.00067501,-0.03307021,-9.83822536,-0.10875670,-0.20234430,-0.06649780,0.22193214,0.03355262,9.77172756,0.33068883,0.23589692,0.00000000,0.00000000
S,-0.5,1730147632991225856,,-1.00158775,-0.01101675,-0.02150539,-0.02990230,-0.00036383,-0.03197155,-0.00100210,-0.00001054,-0.00002142,-0.00002966,0.00000060,-0.00003159,,,,,,,,,,,,,,,,,,,,,,,
S,-0.5,1730147632992221184,,-0.99880230,-0.01253823,-0.02072260,-0.03764413,-0.00004226,-0.03608436,-0.00099850,-0.00001262,-0.00002112,-0.00003561,-0.00000090,-0.00003545,,,,,,,,,,,,,,,,,,,,,,,
S,-0.5,1730147632991705600,,,,,,,,,,,,,,0.61043435,-0.34409910,-0.60789442,-0.37340355,-55.41472626,0.00416113,0.00710256,0.00403696,0.00678865,-0.03074860,-0.00081460,-0.03634344,-9.84789276,-0.09552932,-0.19974998,-0.07618904,0.23582321,0.03615367,9.77170372,0.33135253,0.23590365,0.00000000,0.00000000
S,-0.5,1730147632993217536,,-0.99712157,-0.01290757,-0.01932217,-0.03851648,0.00241009,-0.03874145,-0.00099654,-0.00001333,-0.00001933,-0.00004082,0.00000207,-0.00003957,,,,,,,,,,,,,,,,,,,,,,,
S,-0.5,1730147632994212864,,-0.99880379,-0.01459598,-0.01758348,-0.03354683,0.00507412,-0.04067674,-0.00099796,-0.00001441,-0.00001745,-0.00003473,0.00000537,-0.00004117,,,,,,,,,,,,,,,,,,,,,,,
S,-0.5,1730147632993701376,,,,,,,,,,,,,,0.61040801,-0.34409687,-0.60789645,-0.37344539,-55.41472626,0.00416113,0.00710256,0.00403696,0.00678865,-0.03400865,-0.00327447,-0.03854525,-9.79198647,-0.12375322,-0.20715977,-0.02030563,0.20831543,0.02872601,9.77168083,0.33206865,0.23588578,0.00000000,0.00000000
S,-0.5,1730147632995207424,,-0.99911124,-0.01404882,-0.01755512,-0.03093728,0.00769351,-0.04248624,-0.00099959,-0.00001469,-0.00001701,-0.00002983,0.00000807,-0.00004277,,,,,,,,,,,,,,,,,,,,,,,
S,-0.5,1730147632996201216,,-0.99884266,-0.01342340,-0.01551860,-0.03365082,0.01109333,-0.04382582,-0.00099899,-0.00001336,-0.00001588,-0.00003233,0.00001131,-0.00004416,,,,,,,,,,,,,,,,,,,,,,,
S,-0.5,1730147632995695616,,,,,,,,,,,,,,0.61038089,-0.34409225,-0.60789824,-0.37349102,-55.41472626,0.00416113,0.00710256,0.00403696,0.00678865,-0.03312952,0.00299180,-0.04426366,-9.78667641,-0.14128351,-0.17116407,-0.01502419,0.19157854,0.06474073,9.77165222,0.33286205,0.23590480,0.00000000,0.00000000
S,-0.5,1730147632997196288,,-1.00006521,-0.01417355,-0.01431665,-0.03192152,0.01025031,-0.04770264,-0.00099976,-0.00001384,-0.00001389,-0.00003310,0.00001149,-0.00004742,,,,,,,,,,,,,,,,,,,,,,,
S,-0.5,1730147632998192896,,-1.00116599,-0.01644988,-0.01452905,-0.03382172,0.01374134,-0.05057970,-0.00100136,-0.00001628,-0.00001411,-0.00003293,0.00001284,-0.00005129,,,,,,,,,,,,,,,,,,,,,,,
S,-0.5,1730147632997696000,,,,,,,,,,,,,,0.61035645,-0.34408170,-0.60789841,-0.37354040,-55.41472626,0.00416113,0.00710256,0.00403696,0.00678865,-0.03072923,0.00893052,-0.04725118,-9.79673862,-0.13104601,-0.15572830,-0.02511883,0.20269512,0.08031456,9.77161980,0.33374113,0.23604286,0.00000000,0.00000000
S,-0.5,1730147632999192064,,-0.99914002,-0.01848461,-0.01411987,-0.03306242,0.01316149,-0.04991407,-0.00099986,-0.00001884,-0.00001426,-0.00003381,0.00001438,-0.00005095,,,,,,,,,,,,,,,,,,,,,,,
S,-0.5,1730147633000190208,,-0.99741888,-0.02139666,-0.01298174,-0.03678221,0.01330491,-0.05152019,-0.00099709,-0.00002152,-0.00001306,-0.00003586,0.00001309,-0.00005102,,,,,,,,,,,,,,,,,,,,,,,
S,-0.5,1730147632999694592,,,,,,,,,,,,,,0.61033261,-0.34406608,-0.60789835,-0.37359360,-55.41472626,0.00416113,0.00710256,0.00403696,0.00678865,-0.03132811,0.01045982,-0.05438375,-9.81994057,-0.15960705,-0.13835195,-0.04836178,0.17511284,0.09789906,9.77157879,0.33471990,0.23625101,0.00000000,0.00000000
S,-0.5,1730147633001187584,,-0.99627137,-0.02299184,-0.01169590,-0.03496261,0.00928344,-0.04939461,-0.00099593,-0.00002363,-0.00001157,-0.00003648,0.00001006,-0.00005029,,,,,,,,,,,,,,,,,,,,,,,
S,-0.5,1730147633002184192,,-0.99815643,-0.02571924,-0.01003001,-0.03544637,0.01896015,-0.05333828,-0.00099745,-0.00002573,-0.00000992,-0.00003478,0.00001592,-0.00005195,,,,,,,,,,,,,,,,,,,,,,,
S,-0.5,1730147633001691904,,,,,,,,,,,,,,0.61030757,-0.34404919,-0.60789835,-0.37365031,-55.41472626,0.00416113,0.00710256,0.00403696,0.00678865,-0.03426676,0.01071541,-0.05410925,-9.77808094,-0.21099256,-0.12805697,-0.00654125,0.12477197,0.10842529,9.77153969,0.33576453,0.23648226,0.00000000,0.00000000
S,-0.5,1730147633003179776,,-1.00111866,-0.02702035,-0.01035968,-0.03428245,0.02570242,-0.05404805,-0.00100118,-0.00002765,-0.00000977,-0.00003465,0.00002756,-0.00005517,,,,,,,,,,,,,,,,,,,,,,,
S,-0.5,1730147633004174592,,-1.00434721,-0.03089541,-0.01118440,-0.03915171,0.03101280,-0.05332529,-0.00100470,-0.00003061,-0.00001114,-0.00003790,0.00003219,-0.00005368,,,,,,,,,,,,,,,,,,,,,,,
S,-0.5,1730147633003687424,,,,,,,,,,,,,,0.61028296,-0.34403205,-0.60789710,-0.37370831,-55.75294113,0.00416113,0.00710256,0.00403696,0.00678865,-0.03318134,0.01354302,-0.05503794,-9.78163052,-0.25234067,-0.09731992,-0.01013374,0.08447459,0.13942243,9.77149677,0.33681527,0.23674235,-0.33821487,0.00000000
S,-0.5,1730147633005169152,,-1.00211072,-0.03168901,-0.01622106,-0.04091823,0.03543175,-0.05491407,-0.00100354,-0.00003278,-0.00001557,-0.00004215,0.00003632,-0.00005440,,,,,,,,,,,,,,,,,,,,,,,
S,-0.5,1730147633006162688,,-1.00260687,-0.03333560,-0.01727133,-0.04802223,0.03522044,-0.05568752,-0.00100180,-0.00003329,-0.00001868,-0.00004729,0.00003667,-0.00005605,,,,,,,,,,,,,,,,,,,,,,,
S,-0.5,1730147633005681664,,,,,,,,,,,,,,0.61026329,-0.34401116,-0.60789013,-0.37377101,-55.75294113,0.00416113,0.00710256,0.00403696,0.00678865,-0.03629859,0.02981523,-0.05677530,-9.85277557,-0.30013612,-0.10924478,-0.08132648,0.03775558,0.12794475,9.77144909,0.33789170,0.23718953,-0.33821487,0.00000000
S,-0.5,1730147633007155456,,-0.99961221,-0.03848403,-0.01929261,-0.04683903,0.03145541,-0.05715014,-0.00100031,-0.00003807,-0.00001926,-0.00004932,0.00003207,-0.00005713,,,,,,,,,,,,,,,,,,,,,,,
S,-0.5,1730147633008147200,,-0.99832058,-0.04180376,-0.02058826,-0.04213097,0.03194026,-0.05853748,-0.00099760,-0.00004284,-0.00002100,-0.00004261,0.00003065,-0.00005875,,,,,,,,,,,,,,,,,,,,,,,
S,-0.5,1730147633007674112,,,,,,,,,,,,,,0.61024702,-0.34398896,-0.60787517,-0.37384233,-55.75294113,0.00416113,0.00710256,0.00403696,0.00678865,-0.04569589,0.03428656,-0.05914546,-9.82434940,-0.32645544,-0.18322518,-0.05295467,0.01254937,0.05461879,9.77139473,0.33900481,0.23784398,-0.33821487,0.00000000
S,-0.5,1730147633009142272,,-0.99880391,-0.04241299,-0.02335524,-0.04227627,0.03061345,-0.05809962,-0.00099831,-0.00004336,-0.00002326,-0.00004075,0.00003101,-0.00005862,,,,,,,,,,,,,,,,,,,,,,,
S,-0.5,1730147633010136320,,-0.99702758,-0.04279713,-0.02533042,-0.04073657,0.03353395,-0.05425075,-0.00099750,-0.00004292,-0.00002585,-0.00004106,0.00003258,-0.00005481,,,,,,,,,,,,,,,,,,,,,,,
S,-0.5,1730147633009668864,,,,,,,,,,,,,,0.61022848,-0.34396693,-0.60786068,-0.37391636,-55.75294113,0.00416113,0.00710256,0.00403696,0.00678865,-0.04101185,0.02827480,-0.06184375,-9.78313351,-0.42011261,-0.20590135,-0.01179600,-0.07994598,0.03258286,9.77133751,0.34016663,0.23848422,-0.33821487,0.00000000
S,-0.5,1730147633011129856,,-0.99738604,-0.04822124,-0.02406393,-0.03618799,0.03873507,-0.05176967,-0.00099676,-0.00004736,-0.00002492,-0.00003652,0.00003872,-0.00005100,,,,,,,,,,,,,,,,,,,,,,,
S,-0.5,1730147633012127744,,-0.99716270,-0.05404714,-0.02251977,-0.02673682,0.04097582,-0.04918991,-0.00099732,-0.00005472,-0.00002240,-0.00002701,0.00004222,-0.00004887,,,,,,,,,,,,,,,,,,,,,,,
S,-0.5,1730147633011667712,,,,,,,,,,,,,,0.61021000,-0.34394416,-0.60784841,-0.37398741,-55.75294113,0.00415795,0.00711619,0.00405534,0.00676467,-0.03946463,0.03020212,-0.05790344,-9.78217411,-0.42091081,-0.25352585,-0.01089096,-0.07959315,-0.01444334,9.77128315,0.34131765,0.23908252,-0.33821487,0.00000000
S,-0.5,1730147633013124864,,-0.99370575,-0.05663849,-0.02358562,-0.02268890,0.04182701,-0.04696418,-0.00099426,-0.00005802,-0.00002290,-0.00002042,0.00004239,-0.00004655,,,,,,,,,,,,,,,,,,,,,,,
S,-0.5,1730147633014121472,,-0.99111563,-0.05951193,-0.02510090,-0.01796192,0.04256974,-0.04830524,-0.00099049,-0.00005981,-0.00002516,-0.00001753,0.00004271,-0.00004735,,,,,,,,,,,,,,,,,,,,,,,
S,-0.5,1730147633013665024,,,,,,,,,,,,,,0.61019957,-0.34391746,-0.60783380,-0.37405270,-55.75294113,0.00415795,0.00711619,0.00405534,0.00676467,-0.02540821,0.03984535,-0.05196167,-9.78034210,-0.53657103,-0.21964368,-0.00911236,-0.19419506,0.02014525,9.77122974,0.34237596,0.23978893,-0.33821487,0.00000000
S,-0.5,1730147633015117312,,-0.99173069,-0.06061202,-0.02862575,-0.02066643,0.04444660,-0.04359272,-0.00099079,-0.00006133,-0.00002847,-0.00001867,0.00004434,-0.00004488,,,,,,,,,,,,,,,,,,,,,,,
S,-0.5,1730147633016112128,,-0.99213606,-0.06238440,-0.03055320,-0.01893774,0.04392975,-0.03932353,-0.00099226,-0.00006241,-0.00003133,-0.00002011,0.00004462,-0.00003860,,,,,,,,,,,,,,,,,,,,,,,
S,-0.5,1730147633015660800,,,,,,,,,,,,,,0.61019766,-0.34388396,-0.60781920,-0.37411031,-55.75294113,0.00415795,0.00711619,0.00405534,0.00676467,-0.01593436,0.04032684,-0.05044588,-9.71334839,-0.58658272,-0.24678318,0.05782604,-0.24321574,-0.00619674,9.77117443,0.34336698,0.24058644,-0.33821487,0.00000000
S,-0.5,1730147633017106176,,-0.99167359,-0.06555799,-0.03214978,-0.01874073,0.04419043,-0.03814955,-0.00099189,-0.00006555,-0.00003247,-0.00001823,0.00004398,-0.00003700,,,,,,,,,,,,,,,,,,,,,,,
S,-0.5,1730147633018099456,,-0.99220395,-0.06621372,-0.03263450,-0.02098540,0.04377461,-0.03614176,-0.00099196,-0.00006710,-0.00003305,-0.00002051,0.00004393,-0.00003613,,,,,,,,,,,,,,,,,,,,,,,
S,-0.5,1730147633017655040,,,,,,,,,,,,,,0.61019957,-0.34385103,-0.60780340,-0.37416309,-55.75294113,0.00415795,0.00711619,0.00405534,0.00676467,-0.01851476,0.04224221,-0.04169191,-9.73072910,-0.61205280,-0.30719343,0.04039383,-0.26779392,-0.06578894,9.77112293,0.34425887,0.24140449,-0.33821487,0.00000000
S,-0.5,1730147633019092224,,-0.99260682,-0.06734181,-0.03542896,-0.02387800,0.04433233,-0.03877872,-0.00099270,-0.00006735,-0.00003508,-0.00002407,0.00004410,-0.00003766,,,,,,,,,,,,,,,,,,,,,,,
S,-0.5,1730147633020083968,,-0.99316603,-0.06927595,-0.03659491,-0.02893645,0.04482746,-0.03310830,-0.00099319,-0.00006928,-0.00003727,-0.00002894,0.00004492,-0.00003498,,,,,,,,,,,,,,,,,,,,,,,
S,-0.5,1730147633019647488,,,,,,,,,,,,,,0.61020344,-0.34382218,-0.60778475,-0.37421358,-55.75294113,0.00415795,0.00711619,0.00405534,0.00676467,-0.01891693,0.04155426,-0.03922562,-9.72780800,-0.65807223,-0.32415536,0.04326630,-0.31303135,-0.08191936,9.77107430,0.34504089,0.24223600,-0.33821487,0.00000000
S,-0.5,1730147633021079040,,-0.99378824,-0.06964936,-0.04172261,-0.02949462,0.04009649,-0.02855827,-0.00099385,-0.00007020,-0.00004116,-0.00003100,0.00004111,-0.00002758,,,,,,,,,,,,,,,,,,,,,,,
S,-0.5,1730147633022074624,,-0.99588299,-0.06919780,-0.04519503,-0.03185448,0.03933896,-0.02588388,-0.00099570,-0.00006940,-0.00004620,-0.00003160,0.00003797,-0.00002492,,,,,,,,,,,,,,,,,,,,,,,
S,-0.5,1730147633021643520,,,,,,,,,,,,,,0.61020660,-0.34379706,-0.60776371,-0.37426567,-55.75294113,0.00415795,0.00711619,0.00405534,0.00676467,-0.02734020,0.04253617,-0.03807067,-9.73989391,-0.67943799,-0.36551997,0.03113365,-0.33365327,-0.12244587,9.77102757,0.34578472,0.24307410,-0.33821487,0.00000000
S,-0.5,1730147633023069440,,-0.99379402,-0.07175496,-0.04629310,-0.03007723,0.03812844,-0.02224375,-0.00099484,-0.00007115,-0.00004720,-0.00003115,0.00003811,-0.00002205,,,,,,,,,,,,,,,,,,,,,,,
S,-0.5,1730147633024063232,,-0.98798275,-0.07139780,-0.04761961,-0.02612788,0.04134708,-0.01552270,-0.00098837,-0.00007228,-0.00004773,-0.00002628,0.00004038,-0.00001559,,,,,,,,,,,,,,,,,,,,,,,
S,-0.5,1730147633023642112,,,,,,,,,,,,,,0.61020809,-0.34377986,-0.60774052,-0.37431669,-55.75294113,0.00415795,0.00711619,0.00405534,0.00676467,-0.03000547,0.03559181,-0.02801422,-9.76448536,-0.68056685,-0.45302859,0.00650024,-0.33415020,-0.20917183,9.77098560,0.34641665,0.24385676,-0.33821487,0.00000000
S,-0.5,1730147633025060608,,-0.98044610,-0.07091992,-0.04521399,-0.02381360,0.03531475,-0.01399344,-0.00097997,-0.00007089,-0.00004607,-0.00002298,0.00003744,-0.00001213,,,,,,,,,,,,,,,,,,,,,,,
S,-0.5,1730147633026056960,,-0.97593260,-0.07157025,-0.04505153,-0.02149037,0.03769121,-0.00653812,-0.00097435,-0.00007130,-0.00004432,-0.00002118,0.00003534,-0.00000741,,,,,,,,,,,,,,,,,,,,,,,
S,-0.5,1730147633025639680,,,,,,,,,,,,,,0.61021233,-0.34376860,-0.60771585,-0.37436020,-55.75294113,0.00415795,0.00711619,0.00405534,0.00676467,-0.02468178,0.03799809,-0.01867794,-9.69263363,-0.70878690,-0.46805474,0.07831764,-0.36192781,-0.22345977,9.77095127,0.34685910,0.24459498,-0.33821487,0.00072298
S,-0.5,1730147633027053312,,-0.98329008,-0.07109812,-0.04225415,-0.01980516,0.03988785,-0.00265697,-0.00098052,-0.00007139,-0.00004271,-0.00001937,0.00004025,-0.00000099,,,,,,,,,,,,,,,,,,,,,,,
S,-0.5,1730147633028048640,,-0.99935240,-0.07258738,-0.04318048,-0.02598141,0.03830387,0.00187651,-0.00099878,-0.00007217,-0.00004212,-0.00002432,0.00003929,0.00000229,,,,,,,,,,,,,,,,,,,,,,,
S,-0.5,1730147633027635712,,,,,,,,,,,,,,0.61022079,-0.34375995,-0.60769093,-0.37439474,-55.75294113,0.00415795,0.00711619,0.00405534,0.00676467,-0.01957789,0.03296040,-0.01049866,-9.55514526,-0.69921023,-0.43458319,0.21577835,-0.35207656,-0.18928029,9.77092361,0.34713367,0.24530290,-0.33821487,0.00142573
S,-0.5,1730147633029042944,,-1.00379717,-0.07360185,-0.05337556,-0.02640177,0.03649371,0.00558867,-0.00100810,-0.00007389,-0.00005182,-0.00002829,0.00003632,0.00000636,,,,,,,,,,,,,,,,,,,,,,,
S,-0.5,1730147633030036224,,-0.99851841,-0.06978349,-0.05932348,-0.03142563,0.03228209,0.00947720,-0.00100089,-0.00007080,-0.00006149,-0.00003065,0.00003247,0.00000995,,,,,,,,,,,,,,,,,,,,,,,
S,-0.5,1730147633029629696,,,,,,,,,,,,,,0.61023265,-0.34375635,-0.60766363,-0.37442306,-55.75294113,0.00415795,0.00711619,0.00405534,0.00676467,-0.02272489,0.03691201,-0.00080451,-9.79464722,-0.70770890,-0.41307214,-0.02374458,-0.36047554,-0.16707139,9.77090263,0.34723336,0.24600075,-0.33821487,0.00214451
S,-0.5,1730147633031031808,,-0.98367423,-0.07122964,-0.05856748,-0.03495888,0.02457761,0.01553811,-0.00098469,-0.00006975,-0.00006060,-0.00003592,0.00002464,0.00001567,,,,,,,,,,,,,,,,,,,,,,,
S,-0.5,1730147633032026368,,-0.97076869,-0.07522814,-0.05391679,-0.03554765,0.01833220,0.02489481,-0.00096839,-0.00007496,-0.00005452,-0.00003657,0.00001701,0.00002512,,,,,,,,,,,,,,,,,,,,,,,
S,-0.5,1730147633031624704,,,,,,,,,,,,,,0.61024523,-0.34376144,-0.60763246,-0.37444845,-55.75294113,0.00415795,0.00711619,0.00405534,0.00676467,-0.02904872,0.03009223,0.00685957,-9.81540298,-0.69430965,-0.60298860,-0.04451466,-0.34714800,-0.35631567,9.77088833,0.34716165,0.24667294,-0.33821487,0.00225926
S,-0.5,1730147633033021440,,-0.96460098,-0.07478961,-0.05250993,-0.03618705,0.01193620,0.02901105,-0.00096161,-0.00007614,-0.00005128,-0.00003626,0.00001111,0.00003124,,,,,,,,,,,,,,,,,,,,,,,
S,-0.5,1730147633034015744,,-0.96746349,-0.07005934,-0.05045161,-0.03391202,0.00638460,0.03075891,-0.00096498,-0.00007078,-0.00005038,-0.00003453,0.00000536,0.00003175,,,,,,,,,,,,,,,,,,,,,,,
S,-0.5,1730147633033619712,,,,,,,,,,,,,,0.61025321,-0.34378138,-0.60760188,-0.37446678,-55.75294113,0.00415795,0.00711619,0.00405534,0.00676467,-0.03496740,0.01463566,0.02203130,-9.49664688,-0.73511791,-0.53466374,0.27424049,-0.38825387,-0.28753161,9.77088737,0.34686404,0.24713211,-0.33821487,0.00300439
S,-0.5,1730147633035010304,,-0.97475237,-0.06491666,-0.04801156,-0.03059747,0.00312688,0.03191918,-0.00097434,-0.00006435,-0.00004780,-0.00003048,0.00000195,0.00003226,,,,,,,,,,,,,,,,,,,,,,,
S,-0.5,1730147633036003840,,-0.98257500,-0.06343516,-0.04660907,-0.02957847,-0.00301469,0.03080463,-0.00098347,-0.00006207,-0.00004609,-0.00002871,-0.00000294,0.00003138,,,,,,,,,,,,,,,,,,,,,,,
S,-0.5,1730147633035618560,,,,,,,,,,,,,,0.61025637,-0.34381419,-0.60757506,-0.37447497,-55.75294113,0.00415795,0.00711619,0.00405534,0.00676467,-0.03293097,0.00297848,0.02865884,-9.46322346,-0.69410646,-0.49403268,0.30767727,-0.34775451,-0.24670509,9.77090073,0.34635195,0.24732760,-0.33821487,0.00300439
S,-0.5,1730147633037000960,,-0.98926264,-0.06375435,-0.04572741,-0.02675466,-0.00514709,0.03371124,-0.00099054,-0.00006322,-0.00004544,-0.00002694,-0.00000671,0.00003283,,,,,,,,,,,,,,,,,,,,,,,
S,-0.5,1730147633037997312,,-0.99694592,-0.06171634,-0.04288756,-0.02440828,-0.00858347,0.03980302,-0.00099768,-0.00006219,-0.00004312,-0.00002394,-0.00000864,0.00003962,,,,,,,,,,,,,,,,,,,,,,,
S,-0.5,1730147633037615616,,,,,,,,,,,,,,0.61025602,-0.34385026,-0.60755473,-0.37447545,-55.75294113,0.00415795,0.00711619,0.00405534,0.00676467,-0.02711063,-0.00531466,0.02828371,-9.64458370,-0.60867393,-0.45195699,0.12633705,-0.26289356,-0.20463094,9.77092075,0.34578037,0.24732605,-0.33821487,0.00300439
S,-0.5,1730147633038992896,,-1.00161421,-0.06009504,-0.03913124,-0.02415585,-0.00961027,0.03671319,-0.00100321,-0.00005974,-0.00003891,-0.00002345,-0.00001052,0.00003921,,,,,,,,,,,,,,,,,,,,,,,
S,-0.5,1730147633039987712,,-1.00417364,-0.05786579,-0.03565036,-0.02438680,-0.01063101,0.04146101,-0.00100519,-0.00005775,-0.00003509,-0.00002426,-0.00001077,0.00003961,,,,,,,,,,,,,,,,,,,,,,,
S,-0.5,1730147633039610880,,,,,,,,,,,,,,0.61025470,-0.34388810,-0.60753930,-0.37446788,-55.75294113,0.00415795,0.00711619,0.00405534,0.00676467,-0.02233783,-0.01101673,0.03652865,-9.78388596,-0.60985297,-0.42288953,-0.01293850,-0.26471820,-0.17570569,9.77094746,0.34513476,0.24718384,-0.33821487,0.00300439
S,-0.5,1730147633040981760,,-1.00448620,-0.05433303,-0.03246183,-0.02732181,-0.01224171,0.04045647,-0.00100524,-0.00005427,-0.00003193,-0.00002686,-0.00001227,0.00004215,,,,,,,,,,,,,,,,,,,,,,,
S,-0.5,1730147633041977344,,-1.00620472,-0.05454665,-0.02946039,-0.02706089,-0.01732217,0.04550953,-0.00100599,-0.00005338,-0.00002899,-0.00002804,-0.00001691,0.00004427,,,,,,,,,,,,,,,,,,,,,,,
S,-0.5,1730147633041606912,,,,,,,,,,,,,,0.61025327,-0.34392855,-0.60752571,-0.37445509,-55.75294113,0.00415795,0.00711619,0.00405534,0.00676467,-0.02266657,-0.01315127,0.03652209,-9.85759258,-0.56638026,-0.34408712,-0.08661461,-0.22197041,-0.09712473,9.77097797,0.34440985,0.24696240,-0.33821487,0.00300439
S,-0.5,1730147633042972160,,-1.00604415,-0.05168755,-0.02818558,-0.02992846,-0.01042367,0.04816509,-0.00100662,-0.00005227,-0.00002746,-0.00002932,-0.00001329,0.00004929,,,,,,,,,,,,,,,,,,,,,,,
S,-0.5,1730147633043965952,,-1.00506544,-0.04851417,-0.02708767,-0.03807739,-0.00811292,0.04766178,-0.00100519,-0.00004818,-0.00002688,-0.00003751,-0.00000634,0.00004860,,,,,,,,,,,,,,,,,,,,,,,
S,-0.5,1730147633043601152,,,,,,,,,,,,,,0.61024952,-0.34397322,-0.60751307,-0.37444073,-55.71066666,0.00415795,0.00711619,0.00405534,0.00676467,-0.02644461,-0.01929068,0.04117894,-9.86540985,-0.52350980,-0.28429869,-0.09439659,-0.17987117,-0.03763637,9.77101326,0.34363863,0.24666232,-0.29594040,0.00300439
S,-0.5,1730147633044961024,,-1.00821996,-0.04482923,-0.02503044,-0.03695451,-0.00679325,0.04525677,-0.00100734,-0.00004449,-0.00002505,-0.00003975,-0.00000630,0.00004553,,,,,,,,,,,,,,,,,,,,,,,
S,-0.5,1730147633045955328,,-1.00950611,-0.04051561,-0.02308706,-0.04175661,-0.01242968,0.04594161,-0.00101028,-0.00004013,-0.00002278,-0.00004053,-0.00001099,0.00004505,,,,,,,,,,,,,,,,,,,,,,,
S,-0.5,1730147633045596160,,,,,,,,,,,,,,0.61024654,-0.34402382,-0.60749501,-0.37442839,-55.71066666,0.00415795,0.00711619,0.00405534,0.00676467,-0.03591170,-0.00871582,0.04550573,-9.85756779,-0.47249120,-0.26362231,-0.08651829,-0.12971532,-0.01721187,9.77104950,0.34277588,0.24641044,-0.29594040,0.00300439
S,-0.5,1730147633046950144,,-1.01126063,-0.03706084,-0.02385909,-0.04164271,-0.01238570,0.04498832,-0.00101135,-0.00003632,-0.00002310,-0.00004319,-0.00001419,0.00004538,,,,,,,,,,,,,,,,,,,,,,,
S,-0.5,1730147633047943936,,-1.01266038,-0.03475279,-0.02241885,-0.04187169,-0.01175520,0.04559863,-0.00101296,-0.00003407,-0.00002293,-0.00004179,-0.00001186,0.00004518,,,,,,,,,,,,,,,,,,,,,,,
S,-0.5,1730147633047590400,,,,,,,,,,,,,,0.61024332,-0.34407735,-0.60747272,-0.37442064,-55.71066666,0.00415795,0.00711619,0.00405534,0.00676467,-0.03892876,-0.01336442,0.04195891,-9.90742874,-0.39350599,-0.22344393,-0.13634300,-0.05160278,0.02277619,9.77108574,0.34190321,0.24622011,-0.29594040,0.00300439
S,-0.5,1730147633048941312,,-1.01344323,-0.03041331,-0.02101070,-0.04281903,-0.00879142,0.04144585,-0.00101375,-0.00003047,-0.00002081,-0.00004272,-0.00000913,0.00004239,,,,,,,,,,,,,,,,,,,,,,,
S,-0.5,1730147633049937664,,-1.01278341,-0.02713346,-0.01833719,-0.04443019,-0.00607165,0.04049010,-0.00101315,-0.00002635,-0.00001838,-0.00004444,-0.00000562,0.00003934,,,,,,,,,,,,,,,,,,,,,,,
S,-0.5,1730147633049586944,,,,,,,,,,,,,,0.61023706,-0.34413218,-0.60745186,-0.37441429,-55.71066666,0.00415795,0.00711619,0.00405534,0.00676467,-0.04019592,-0.01423463,0.04209153,-9.93378830,-0.33413690,-0.22483189,-0.16266727,0.00692570,0.02114582,9.77112103,0.34106261,0.24597771,-0.29594040,0.00300439
S,-0.5,1730147633050933248,,-1.01204216,-0.02614437,-0.01772979,-0.04113811,-0.00014318,0.03923029,-0.00101197,-0.00002528,-0.00001699,-0.00004225,-0.00000035,0.00003915,,,,,,,,,,,,,,,,,,,,,,,
S,-0.5,1730147633051929600,,-1.00762522,-0.02402214,-0.01943232,-0.03707859,-0.00118783,0.04141189,-0.00100819,-0.00002409,-0.00001893,-0.00003677,0.00000089,0.00004061,,,,,,,,,,,,,,,,,,,,,,,
S,-0.5,1730147633051583744,,,,,,,,,,,,,,0.61023068,-0.34418547,-0.60742962,-0.37441179,-55.71066666,0.00415795,0.00711619,0.00405534,0.00676467,-0.04284110,-0.00800130,0.03624911,-9.93563271,-0.25838873,-0.18019745,-0.16447926,0.08188808,0.06559135,9.77115345,0.34027681,0.24578880,-0.29594040,0.00300439
S,-0.5,1730147633052924928,,-1.00169992,-0.02242430,-0.01848524,-0.03302183,-0.00127861,0.03809972,-0.00100137,-0.00002204,-0.00001920,-0.00003247,-0.00000159,0.00003940,,,,,,,,,,,,,,,,,,,,,,,
S,-0.5,1730147633053919232,,-0.99677670,-0.02256496,-0.01597266,-0.03097912,-0.00210714,0.03191527,-0.00099579,-0.00002203,-0.00001613,-0.00003006,-0.00000199,0.00003198,,,,,,,,,,,,,,,,,,,,,,,
S,-0.5,1730147633053578496,,,,,,,,,,,,,,0.61022818,-0.34423345,-0.60740525,-0.37441134,-55.71066666,0.00415795,0.00711619,0.00405534,0.00676467,-0.03517035,-0.00148979,0.03752175,-9.88698387,-0.23626940,-0.18563731,-0.11580276,0.10326792,0.06008518,9.77118111,0.33953732,0.24572249,-0.29594040,0.00300439
S,-0.5,1730147633054912768,,-0.99430835,-0.01997766,-0.01378524,-0.02983619,-0.00400163,0.02885186,-0.00099319,-0.00002049,-0.00001338,-0.00002939,-0.00000392,0.00002744,,,,,,,,,,,,,,,,,,,,,,,
S,-0.5,1730147633055905536,,-0.99322289,-0.01701965,-0.01134791,-0.02849273,-0.00136440,0.03011408,-0.00099263,-0.00001673,-0.00001109,-0.00002837,-0.00000245,0.00002891,,,,,,,,,,,,,,,,,,,,,,,
S,-0.5,1730147633055571968,,,,,,,,,,,,,,0.61022788,-0.34427413,-0.60738367,-0.37440941,-55.71066666,0.00415795,0.00711619,0.00405534,0.00676467,-0.02846104,-0.00436439,0.02889187,-9.76531506,-0.21605416,-0.15815841,0.00588989,0.12281834,0.08752860,9.77120495,0.33887249,0.24568701,-0.29594040,0.00300439
S,-0.5,1730147633056900608,,-0.99444175,-0.01576229,-0.01093157,-0.03215568,0.00644118,0.02843727,-0.00099387,-0.00001505,-0.00001023,-0.00003106,0.00000586,0.00002914,,,,,,,,,,,,,,,,,,,,,,,
S,-0.5,1730147633057895168,,-0.99418187,-0.01611984,-0.01113298,-0.03556322,0.00792110,0.02615185,-0.00099462,-0.00001565,-0.00001096,-0.00003611,0.00001014,0.00002603,,,,,,,,,,,,,,,,,,,,,,,
S,-0.5,1730147633057566720,,,,,,,,,,,,,,0.61022580,-0.34430933,-0.60736674,-0.37440792,-55.71066666,0.00415795,0.00711619,0.00405534,0.00676467,-0.02677510,-0.00482547,0.02581687,-9.73441887,-0.16409867,-0.10880085,0.03680706,0.17422615,0.13681453,9.77122593,0.33832482,0.24561538,-0.29594040,0.00300439
S,-0.5,1730147633058889216,,-0.99376696,-0.01481572,-0.01048088,-0.04479865,0.01451941,0.01967569,-0.00099376,-0.00001517,-0.00001066,-0.00004421,0.00001379,0.00002012,,,,,,,,,,,,,,,,,,,,,,,
S,-0.5,1730147633059882240,,-0.99612951,-0.01381938,-0.01089714,-0.05060055,0.01473926,0.01780495,-0.00099557,-0.00001359,-0.00001061,-0.00005249,0.00001680,0.00001608,,,,,,,,,,,,,,,,,,,,,,,
S,-0.5,1730147633059561728,,,,,,,,,,,,,,0.61022526,-0.34434229,-0.60734600,-0.37441215,-55.71066666,0.00415795,0.00711619,0.00405534,0.00676467,-0.03451215,0.00775790,0.02294058,-9.75386238,-0.15352213,-0.10752228,0.01737881,0.18431124,0.13814226,9.77124119,0.33783337,0.24566454,-0.29594040,0.00300439
S,-0.5,1730147633060876032,,-0.99722332,-0.01316423,-0.01120580,-0.04860637,0.01479898,0.01926976,-0.00099778,-0.00001297,-0.00001128,-0.00005082,0.00001486,0.00001841,,,,,,,,,,,,,,,,,,,,,,,
S,-0.5,1730147633061868800,,-0.99850273,-0.01358780,-0.01562545,-0.04869667,0.01760214,0.01854555,-0.00099862,-0.00001330,-0.00001492,-0.00004805,0.00001711,0.00001914,,,,,,,,,,,,,,,,,,,,,,,
S,-0.5,1730147633061558528,,,,,,,,,,,,,,0.61022401,-0.34437510,-0.60731703,-0.37443092,-55.71066666,0.00415795,0.00711619,0.00405534,0.00676467,-0.05088823,0.01442072,0.01299066,-9.76318932,-0.13322946,-0.10408977,0.00805855,0.20423171,0.14181992,9.77124786,0.33746117,0.24590969,-0.29594040,0.00300439
S,-0.5,1730147633062864128,,-1.00080216,-0.01586981,-0.01858787,-0.04306199,0.01732843,0.01066593,-0.00100079,-0.00001559,-0.00001946,-0.00004411,0.00001827,0.00001187,,,,,,,,,,,,,,,,,,,,,,,
S,-0.5,1730147633063858688,,-0.99866015,-0.01625231,-0.02214927,-0.03453887,0.02186476,0.00483028,-0.00099978,-0.00001691,-0.00002245,-0.00003429,0.00002095,0.00000338,,,,,,,,,,,,,,,,,,,,,,,
S,-0.5,1730147633063555072,,,,,,,,,,,,,,0.61022156,-0.34440815,-0.60728490,-0.37445664,-55.71066666,0.00415795,0.00711619,0.00405534,0.00676467,-0.04644758,0.01473297,0.01605063,-9.79310226,-0.13045061,-0.14632377,-0.02185154,0.20670277,0.09990433,9.77125072,0.33715338,0.24622810,-0.29594040,0.00300439
S,-0.5,1730147633064853760,,-0.99839544,-0.01741162,-0.02293315,-0.02916150,0.02916086,0.00396026,-0.00099776,-0.00001732,-0.00002393,-0.00002743,0.00002928,0.00000226,,,,,,,,,,,,,,,,,,,,,,,
S,-0.5,1730147633065848064,,-1.00137806,-0.01653221,-0.02151906,-0.02433264,0.03234036,0.00174244,-0.00100075,-0.00001706,-0.00002203,-0.00002350,0.00003409,0.00000187,,,,,,,,,,,,,,,,,,,,,,,
S,-0.5,1730147633065549568,,,,,,,,,,,,,,0.61022109,-0.34443101,-0.60725713,-0.37448144,-55.71066666,0.00415795,0.00711619,0.00405534,0.00676467,-0.03269597,0.01857452,0.00028962,-9.80450344,-0.16582978,-0.22011395,-0.03325558,0.17114493,0.02646600,9.77124786,0.33697471,0.24657995,-0.29594040,0.00300439
S,-0.5,1730147633066841344,,-1.00100625,-0.01850767,-0.02472870,-0.01707673,0.03360915,0.00062386,-0.00100202,-0.00001787,-0.00002370,-0.00001686,0.00003439,0.00000012,,,,,,,,,,,,,,,,,,,,,,,
S,-0.5,1730147633067833856,,-1.00217366,-0.02132222,-0.02512291,-0.01452641,0.03944356,-0.00215656,-0.00100184,-0.00002144,-0.00002607,-0.00001268,0.00003879,-0.00000201,,,,,,,,,,,,,,,,,,,,,,,
S,-0.5,1730147633067542528,,,,,,,,,,,,,,0.61022675,-0.34443799,-0.60723174,-0.37450695,-55.71066666,0.00415795,0.00711619,0.00405534,0.00676467,-0.02190041,0.03170621,-0.00122432,-9.81402397,-0.16731164,-0.21600017,-0.04278851,0.16965869,0.03108871,9.77123547,0.33697033,0.24708888,-0.29594040,0.00300439
S,-0.5,1730147633068829184,,-1.00165045,-0.02278421,-0.02914401,-0.01005795,0.04107634,-0.00528674,-0.00100212,-0.00002341,-0.00002854,-0.00001006,0.00004264,-0.00000560,,,,,,,,,,,,,,,,,,,,,,,
S,-0.5,1730147633069823488,,-1.00170970,-0.02577178,-0.03192023,-0.00860144,0.04006838,-0.00504160,-0.00100153,-0.00002569,-0.00003270,-0.00000744,0.00004077,-0.00000608,,,,,,,,,,,,,,,,,,,,,,,
S,-0.5,1730147633069537280,,,,,,,,,,,,,,0.61024058,-0.34443337,-0.60720587,-0.37453061,-55.71066666,0.00415795,0.00711619,0.00405534,0.00676467,-0.01108224,0.03640849,-0.00510021,-9.82472610,-0.21025302,-0.25569177,-0.05350971,0.12677096,-0.00792608,9.77121639,0.33702397,0.24776569,-0.29594040,0.00300439
S,-0.5,1730147633070817536,,-1.00128758,-0.03054736,-0.03305033,-0.01053017,0.04261093,-0.00615410,-0.00100138,-0.00003063,-0.00003373,-0.00000972,0.00004183,-0.00000587,,,,,,,,,,,,,,,,,,,,,,,
S,-0.5,1730147633071810560,,-0.99723858,-0.03294497,-0.03508829,-0.01545206,0.04287177,-0.00576446,-0.00099784,-0.00003403,-0.00003508,-0.00001517,0.00004363,-0.00000619,,,,,,,,,,,,,,,,,,,,,,,
S,-0.5,1730147633071530752,,,,,,,,,,,,,,0.61025769,-0.34442019,-0.60718232,-0.37455299,-55.71066666,0.00415795,0.00711619,0.00405534,0.00676467,-0.00584581,0.03839236,-0.00917527,-9.82167625,-0.25197583,-0.32063442,-0.05048466,0.08518338,-0.07213241,9.77119160,0.33715922,0.24850202,-0.29594040,0.00300439
S,-0.5,1730147633072802816,,-0.99387956,-0.03509718,-0.03826070,-0.01518328,0.04317562,-0.00512759,-0.00099320,-0.00003547,-0.00003833,-0.00001680,0.00004320,-0.00000512,,,,,,,,,,,,,,,,,,,,,,,
S,-0.5,1730147633073794816,,-0.99451333,-0.03680456,-0.04120503,-0.01272141,0.04485573,-0.00496171,-0.00099333,-0.00003718,-0.00004168,-0.00001308,0.00004465,-0.00000479,,,,,,,,,,,,,,,,,,,,,,,
S,-0.5,1730147633073527808,,,,,,,,,,,,,,0.61027509,-0.34440559,-0.60715759,-0.37457824,-55.71066666,0.00415795,0.00711619,0.00405534,0.00676467,-0.01357382,0.04125481,-0.00928212,-9.78546524,-0.33371520,-0.34399679,-0.01429844,0.00361949,-0.09470937,9.77116680,0.33733469,0.24928743,-0.29594040,0.00300439
S,-0.5,1730147633074790656,,-0.99188185,-0.03953620,-0.04364561,-0.01600732,0.04330827,-0.00424210,-0.00099256,-0.00003958,-0.00004414,-0.00001463,0.00004412,-0.00000432,,,,,,,,,,,,,,,,,,,,,,,
S,-0.5,1730147633075785472,,-0.99109334,-0.04191403,-0.04670228,-0.01663673,0.04001144,-0.00079456,-0.00099040,-0.00004235,-0.00004692,-0.00001757,0.00004012,-0.00000119,,,,,,,,,,,,,,,,,,,,,,,
S,-0.5,1730147633075523072,,,,,,,,,,,,,,0.61029291,-0.34439239,-0.60713035,-0.37460548,-55.71066666,0.00415795,0.00711619,0.00405534,0.00676467,-0.01148523,0.04226831,-0.00788190,-9.74122906,-0.36460537,-0.40874112,0.02991104,-0.02710921,-0.15862903,9.77114010,0.33749616,0.25011209,-0.29594040,0.00300439
S,-0.5,1730147633076779776,,-0.99122125,-0.04614405,-0.04790489,-0.01426998,0.03585054,-0.00232208,-0.00099095,-0.00004613,-0.00004866,-0.00001490,0.00003556,-0.00000095,,,,,,,,,,,,,,,,,,,,,,,
S,-0.5,1730147633077773056,,-0.99010098,-0.04701429,-0.04975815,-0.01392158,0.03460755,0.00002166,-0.00099035,-0.00004820,-0.00004980,-0.00001323,0.00003351,-0.00000089,,,,,,,,,,,,,,,,,,,,,,,
S,-0.5,1730147633077516800,,,,,,,,,,,,,,0.61031020,-0.34438208,-0.60710287,-0.37463132,-55.71066666,0.00415795,0.00711619,0.00405534,0.00676467,-0.01597038,0.03773899,-0.00428463,-9.71249676,-0.41532391,-0.46016195,0.05861855,-0.07771555,-0.20925850,9.77111530,0.33760837,0.25090346,-0.29594040,0.00300439
S,-0.5,1730147633078765568,,-0.99090314,-0.04706798,-0.05176522,-0.01371829,0.02968818,0.00173417,-0.00099040,-0.00004733,-0.00005199,-0.00001364,0.00003019,0.00000217,,,,,,,,,,,,,,,,,,,,,,,
S,-0.5,1730147633079757056,,-0.99353957,-0.04764772,-0.05357438,-0.01207035,0.02807367,0.00158197,-0.00099332,-0.00004756,-0.00005388,-0.00001231,0.00002680,0.00000215,,,,,,,,,,,,,,,,,,,,,,,
S,-0.5,1730147633079508480,,,,,,,,,,,,,,0.61032480,-0.34437510,-0.60707814,-0.37465408,-55.71066666,0.00415795,0.00711619,0.00405534,0.00676467,-0.01163361,0.03113005,-0.00398315,-9.71196938,-0.47270638,-0.48841098,0.05912685,-0.13502398,-0.23682517,9.77109623,0.33768240,0.25158581,-0.29594040,0.00300439
S,-0.5,1730147633080752384,,-0.99328887,-0.04881330,-0.05424758,-0.01247540,0.02763259,0.00397181,-0.00099417,-0.00004879,-0.00005470,-0.00001188,0.00002720,0.00000349,,,,,,,,,,,,,,,,,,,,,,,
S,-0.5,1730147633081746944,,-0.99233645,-0.04937340,-0.05634686,-0.01120434,0.02607204,0.00627922,-0.00099243,-0.00004964,-0.00005618,-0.00001156,0.00002622,0.00000662,,,,,,,,,,,,,,,,,,,,,,,
S,-0.5,1730147633081503232,,,,,,,,,,,,,,0.61033690,-0.34437001,-0.60705787,-0.37467194,-55.71066666,0.00415795,0.00711619,0.00405534,0.00676467,-0.01070714,0.02442225,-0.00093802,-9.74110222,-0.46639928,-0.52842402,0.02997780,-0.12867403,-0.27628765,9.77108002,0.33772525,0.25213638,-0.29594040,0.00300439
S,-0.5,1730147633082740992,,-0.99334908,-0.04847236,-0.05969490,-0.01150796,0.01311321,0.00762575,-0.00099286,-0.00004881,-0.00005975,-0.00001105,0.00001497,0.00000812,,,,,,,,,,,,,,,,,,,,,,,
S,-0.5,1730147633083734272,,-0.99458998,-0.04874896,-0.05903885,-0.00856259,0.01400852,0.00579920,-0.00099469,-0.00004841,-0.00006022,-0.00000919,0.00000972,0.00000656,,,,,,,,,,,,,,,,,,,,,,,
S,-0.5,1730147633083496704,,,,,,,,,,,,,,0.61034846,-0.34436807,-0.60703880,-0.37468573,-55.71066666,0.00415795,0.00711619,0.00405534,0.00676467,-0.00996629,0.02383630,0.00352794,-9.73240948,-0.48682559,-0.55093408,0.03866005,-0.14913124,-0.29831934,9.77106953,0.33769435,0.25261474,-0.29594040,0.00300439
S,-0.5,1730147633084726528,,-0.99340892,-0.04644369,-0.05858852,-0.00871806,0.01004932,0.00540362,-0.00099402,-0.00004695,-0.00005846,-0.00000775,0.00001105,0.00000489,,,,,,,,,,,,,,,,,,,,,,,
S,-0.5,1730147633085718016,,-0.99334574,-0.04508605,-0.05858156,-0.01287130,0.00908422,0.00607447,-0.00099298,-0.00004460,-0.00005844,-0.00001217,0.00000800,0.00000583,,,,,,,,,,,,,,,,,,,,,,,
S,-0.5,1730147633085488640,,,,,,,,,,,,,,0.61035621,-0.34436971,-0.60702479,-0.37469429,-55.80578995,0.00415795,0.00711619,0.00405534,0.00676467,-0.00759646,0.00734205,0.00346692,-9.75454521,-0.47475988,-0.59058905,0.01651764,-0.13713840,-0.33766392,9.77106285,0.33762148,0.25292513,-0.39106369,0.00300439
S,-0.5,1730147633086719488,,-0.99546522,-0.04739251,-0.05849564,-0.01284924,0.00645956,0.01195057,-0.00099506,-0.00004654,-0.00005851,-0.00001418,0.00000663,0.00001110,,,,,,,,,,,,,,,,,,,,,,,
S,-0.5,1730147633087719936,,-0.99601895,-0.04571988,-0.05842585,-0.00886563,0.00446283,0.01177837,-0.00099659,-0.00004676,-0.00005841,-0.00000958,0.00000399,0.00001368,,,,,,,,,,,,,,,,,,,,,,,
S,-0.5,1730147633087489536,,,,,,,,,,,,,,0.61035818,-0.34437472,-0.60701638,-0.37470013,-55.80578995,0.00415795,0.00711619,0.00405534,0.00676467,-0.01056827,0.00562043,0.00273391,-9.73782063,-0.43736511,-0.57309330,0.03324223,-0.09980863,-0.32003561,9.77106285,0.33755648,0.25305769,-0.39106369,0.00300439
S,-0.5,1730147633088719616,,-0.99612117,-0.04220535,-0.05903477,-0.00872064,0.00279018,0.01546278,-0.00099628,-0.00004231,-0.00005890,-0.00000748,0.00000246,0.00001474,,,,,,,,,,,,,,,,,,,,,,,
S,-0.5,1730147633089718528,,-0.99809301,-0.04142462,-0.05825207,-0.00931186,-0.00035336,0.01411587,-0.00099777,-0.00004045,-0.00005859,-0.00000916,-0.00000031,0.00001553,,,,,,,,,,,,,,,,,,,,,,,
S,-0.5,1730147633089488640,,,,,,,,,,,,,,0.61035967,-0.34438306,-0.60700840,-0.37470293,-55.80578995,0.00415795,0.00711619,0.00405534,0.00676467,-0.00798447,0.00161129,0.01058732,-9.77323914,-0.45853695,-0.57281566,-0.00217438,-0.12111571,-0.31968129,9.77106476,0.33742124,0.25313437,-0.39106369,0.00300439
S,-0.5,1730147633090716672,,-0.99864054,-0.04161312,-0.05637586,-0.01031879,-0.00599011,0.00974686,-0.00099917,-0.00004133,-0.00005647,-0.00001032,-0.00000597,0.00001011,,,,,,,,,,,,,,,,,,,,,,,
S,-0.5,1730147633091714048,,-0.99776113,-0.03937426,-0.05634620,-0.00860292,-0.00664326,0.01106386,-0.00099810,-0.00003984,-0.00005575,-0.00000924,-0.00000832,0.00000943,,,,,,,,,,,,,,,,,,,,,,,
S,-0.5,1730147633091486976,,,,,,,,,,,,,,0.61036098,-0.34439498,-0.60700184,-0.37470043,-55.80578995,0.00415795,0.00711619,0.00405534,0.00676467,-0.00756037,-0.00269351,0.01244062,-9.78475475,-0.39665639,-0.57455093,-0.01368141,-0.05946395,-0.32142195,9.77107334,0.33719245,0.25312898,-0.39106369,0.00300439
S,-0.5,1730147633092711424,,-0.99847656,-0.03936571,-0.05762928,-0.00599488,-0.00907834,0.01507149,-0.00099807,-0.00003865,-0.00005739,-0.00000592,-0.00000884,0.00001476,,,,,,,,,,,,,,,,,,,,,,,
S,-0.5,1730147633093707776,,-0.99756366,-0.03709831,-0.05875482,-0.00552141,-0.01693440,0.01334585,-0.00099796,-0.00003751,-0.00005896,-0.00000478,-0.00001628,0.00001494,,,,,,,,,,,,,,,,,,,,,,,
S,-0.5,1730147633093483776,,,,,,,,,,,,,,0.61035782,-0.34440783,-0.60699987,-0.37469700,-55.80578995,0.00415795,0.00711619,0.00405534,0.00676467,-0.00763728,-0.01069770,0.00634112,-9.78797054,-0.39070773,-0.54676175,-0.01688766,-0.05370241,-0.29375845,9.77108288,0.33700532,0.25300330,-0.39106369,0.00300439
S,-0.5,1730147633094703360,,-0.99882311,-0.03739154,-0.05662799,-0.00420931,-0.01523668,0.00975484,-0.00099830,-0.00003662,-0.00005737,-0.00000430,-0.00001805,0.00000986,,,,,,,,,,,,,,,,,,,,,,,
S,-0.5,1730147633095698176,,-0.99929297,-0.03528471,-0.05463707,-0.00506457,-0.01909904,0.01103442,-0.00099961,-0.00003576,-0.00005432,-0.00000449,-0.00001786,0.00000966,,,,,,,,,,,,,,,,,,,,,,,
S,-0.5,1730147633095479040,,,,,,,,,,,,,,0.61035043,-0.34442213,-0.60700369,-0.37468967,-55.80578995,0.00415795,0.00711619,0.00405534,0.00676467,-0.00317935,-0.01866102,0.01184230,-9.78661728,-0.36782330,-0.57818156,-0.01552105,-0.03099781,-0.32546219,9.77109623,0.33682549,0.25271937,-0.39106369,0.00300439
S,-0.5,1730147633096691968,,-0.99894661,-0.03422038,-0.05236531,-0.00449268,-0.02339505,0.01429376,-0.00099916,-0.00003374,-0.00005214,-0.00000487,-0.00002384,0.00001411,,,,,,,,,,,,,,,,,,,,,,,
S,-0.5,1730147633097684736,,-1.00018227,-0.03448465,-0.05044384,-0.00415856,-0.02806236,0.01758840,-0.00099985,-0.00003410,-0.00005007,-0.00000404,-0.00002858,0.00001803,,,,,,,,,,,,,,,,,,,,,,,
S,-0.5,1730147633097475584,,,,,,,,,,,,,,0.61034101,-0.34443685,-0.60701126,-0.37467921,-55.80578995,0.00415795,0.00711619,0.00405534,0.00676467,-0.00289360,-0.02023576,0.00656612,-9.80281067,-0.35069415,-0.53271514,-0.03169823,-0.01404998,-0.28037399,9.77111244,0.33664417,0.25234115,-0.39106369,0.00300439
S,-0.5,1730147633098680832,,-1.00076854,-0.03263512,-0.04900848,-0.00622938,-0.02915945,0.01895923,-0.00100106,-0.00003306,-0.00004866,-0.00000575,-0.00003045,0.00001976,,,,,,,,,,,,,,,,,,,,,,,
S,-0.5,1730147633099675904,,-1.00136662,-0.03153481,-0.04664165,-0.00915263,-0.03167712,0.01688120,-0.00100144,-0.00003115,-0.00004661,-0.00000928,-0.00003157,0.00001770,,,,,,,,,,,,,,,,,,,,,,,
S,-0.5,1730147633099476224,,,,,,,,,,,,,,0.61032856,-0.34445459,-0.60702217,-0.37466544,-55.80578995,0.00415795,0.00711619,0.00405534,0.00676467,-0.00243932,-0.03096069,0.01493451,-9.80515480,-0.33438247,-0.49101338,-0.03402328,0.00205040,-0.23917145,9.77113152,0.33643287,0.25184193,-0.39106369,0.00300439
S,-0.5,1730147633100675328,,-1.00291204,-0.03210398,-0.04421003,-0.01138740,-0.03135442,0.01452972,-0.00100282,-0.00003165,-0.00004390,-0.00001191,-0.00003221,0.00001430,,,,,,,,,,,,,,,,,,,,,,,
S,-0.5,1730147633101674240,,-1.00181997,-0.02954778,-0.04241652,-0.01238008,-0.03858746,0.01285645,-0.00100251,-0.00003019,-0.00004197,-0.00001291,-0.00003717,0.00001241,,,,,,,,,,,,,,,,,,,,,,,
S,-0.5,1730147633101475584,,,,,,,,,,,,,,0.61031264,-0.34447879,-0.60703498,-0.37464833,-55.80578995,0.00415795,0.00711619,0.00405534,0.00676467,-0.00768275,-0.03394778,0.01460234,-9.82081699,-0.30543953,-0.45713416,-0.04965878,0.03070244,-0.20592293,9.77115822,0.33614197,0.25121123,-0.39106369,0.00300439
S,-0.5,1730147633102672384,,-1.00352848,-0.02730431,-0.04183822,-0.01829308,-0.04035192,0.01474919,-0.00100287,-0.00002690,-0.00004137,-0.00001753,-0.00004233,0.00001387,,,,,,,,,,,,,,,,,,,,,,,
S,-0.5,1730147633103669504,,-1.00263894,-0.02676835,-0.03852868,-0.01610795,-0.04466293,0.01546365,-0.00100334,-0.00002615,-0.00003895,-0.00001839,-0.00004444,0.00001594,,,,,,,,,,,,,,,,,,,,,,,
S,-0.5,1730147633103473664,,,,,,,,,,,,,,0.61030036,-0.34449172,-0.60705274,-0.37462786,-55.80578995,0.00415481,0.00710729,0.00404991,0.00675954,-0.01131303,-0.03954941,0.00931913,-9.83126831,-0.29609746,-0.41156507,-0.06008816,0.03986001,-0.16094708,9.77118015,0.33595747,0.25061798,-0.39106369,0.00300439
S,-0.5,1730147633104666112,,-1.00389946,-0.02490126,-0.03403515,-0.01865852,-0.04547692,0.01216456,-0.00100339,-0.00002507,-0.00003380,-0.00001750,-0.00004670,0.00001299,,,,,,,,,,,,,,,,,,,,,,,
S,-0.5,1730147633105661696,,-1.00475276,-0.02319731,-0.03330399,-0.02118911,-0.04878560,0.00802111,-0.00100500,-0.00002291,-0.00003201,-0.00002154,-0.00004844,0.00000772,,,,,,,,,,,,,,,,,,,,,,,
S,-0.5,1730147633105469952,,,,,,,,,,,,,,0.61027348,-0.34452319,-0.60707003,-0.37461475,-55.80578995,0.00415481,0.00710729,0.00404991,0.00675954,-0.01678912,-0.04682013,0.01284348,-9.83944798,-0.25645792,-0.38192731,-0.06823730,0.07927570,-0.13214330,9.77121067,0.33573362,0.24978401,-0.39106369,0.00300439
S,-0.5,1730147633106656768,,-1.00401902,-0.02138164,-0.03089741,-0.01829115,-0.05203094,0.00737299,-0.00100442,-0.00002117,-0.00003110,-0.00001962,-0.00005249,0.00000617,,,,,,,,,,,,,,,,,,,,,,,
S,-0.5,1730147633107650816,,-1.00203812,-0.02005136,-0.02849993,-0.02168882,-0.05381507,0.00892127,-0.00100216,-0.00001971,-0.00002817,-0.00002015,-0.00005452,0.00000843,,,,,,,,,,,,,,,,,,,,,,,
S,-0.5,1730147633107464704,,,,,,,,,,,,,,0.61024076,-0.34455797,-0.60708988,-0.37460372,-55.80578995,0.00415481,0.00710729,0.00404991,0.00675954,-0.01994316,-0.05082239,0.00463095,-9.85567188,-0.22469993,-0.31387535,-0.08443260,0.11085387,-0.06503417,9.77123928,0.33555380,0.24884118,-0.39106369,0.00300439
S,-0.5,1730147633108644352,,-1.00106966,-0.02049048,-0.02609807,-0.02674752,-0.05243929,0.00921166,-0.00100062,-0.00001999,-0.00002577,-0.00002691,-0.00005326,0.00000965,,,,,,,,,,,,,,,,,,,,,,,
S,-0.5,1730147633109636864,,-1.00083160,-0.02035448,-0.02245716,-0.02846231,-0.05699299,0.00653573,-0.00100057,-0.00002052,-0.00002235,-0.00002976,-0.00005573,0.00000711,,,,,,,,,,,,,,,,,,,,,,,
S,-0.5,1730147633109457408,,,,,,,,,,,,,,0.61020327,-0.34459293,-0.60711384,-0.37459379,-55.80578995,0.00415481,0.00710729,0.00404991,0.00675954,-0.01855104,-0.05690276,0.00534082,-9.82787800,-0.19333732,-0.27624658,-0.05660915,0.14210951,-0.02844582,9.77126884,0.33544683,0.24780075,-0.39106369,0.00300439
S,-0.5,1730147633110632448,,-0.99967533,-0.02230118,-0.01931180,-0.02738889,-0.05145585,0.00665689,-0.00099981,-0.00002190,-0.00001872,-0.00002813,-0.00005391,0.00000578,,,,,,,,,,,,,,,,,,,,,,,
S,-0.5,1730147633111627264,,-0.99857283,-0.02386824,-0.01527161,-0.02672825,-0.05270254,0.00701875,-0.00099841,-0.00002420,-0.00001500,-0.00002651,-0.00005071,0.00000699,,,,,,,,,,,,,,,,,,,,,,,
S,-0.5,1730147633111458048,,,,,,,,,,,,,,0.61016208,-0.34463155,-0.60713857,-0.37458530,-55.80578995,0.00415481,0.00710729,0.00404991,0.00675954,-0.02816295,-0.05810653,0.00402150,-9.81220531,-0.20122428,-0.21921729,-0.04090405,0.13411964,0.02747585,9.77130127,0.33534393,0.24669313,-0.39106369,0.00300439
S,-0.5,1730147633112626944,,-0.99670595,-0.02277960,-0.01258023,-0.02968186,-0.05293300,0.00268184,-0.00099669,-0.00002348,-0.00001178,-0.00002893,-0.00005329,0.00000358,,,,,,,,,,,,,,,,,,,,,,,
S,-0.5,1730147633113625856,,-0.99565834,-0.02367104,-0.01206991,-0.02819300,-0.05170896,0.00254362,-0.00099525,-0.00002316,-0.00001131,-0.00002940,-0.00005200,0.00000119,,,,,,,,,,,,,,,,,,,,,,,
S,-0.5,1730147633113457920,,,,,,,,,,,,,,0.61012065,-0.34467098,-0.60716122,-0.37457985,-55.80578995,0.00415481,0.00710729,0.00404991,0.00675954,-0.02490859,-0.05309233,0.00389873,-9.79100990,-0.23735105,-0.14714605,-0.01967812,0.09790282,0.09847838,9.77133179,0.33525386,0.24562442,-0.39106369,0.00300439
S,-0.5,1730147633114625024,,-0.99708742,-0.02243189,-0.00953916,-0.02814292,-0.04865912,0.00372281,-0.00099649,-0.00002294,-0.00000984,-0.00002768,-0.00004882,0.00000346,,,,,,,,,,,,,,,,,,,,,,,
S,-0.5,1730147633115623168,,-0.99819696,-0.02393992,-0.00745830,-0.02928325,-0.04454943,-0.00102339,-0.00099845,-0.00002327,-0.00000703,-0.00002906,-0.00004433,0.00000021,,,,,,,,,,,,,,,,,,,,,,,
S,-0.5,1730147633115456512,,,,,,,,,,,,,,0.61007929,-0.34470779,-0.60718381,-0.37457672,-55.80578995,0.00415481,0.00710729,0.00404991,0.00675954,-0.02780564,-0.05438355,-0.00190460,-9.76011181,-0.22714892,-0.11087437,0.01124668,0.10807288,0.13371690,9.77135849,0.33522180,0.24459127,-0.39106369,0.00300439
S,-0.5,1730147633116620544,,-0.99664319,-0.02429564,-0.00376618,-0.03103593,-0.04160102,0.00015345,-0.00099728,-0.00002471,-0.00000377,-0.00003108,-0.00004083,-0.00000157,,,,,,,,,,,,,,,,,,,,,,,
S,-0.5,1730147633117616896,,-0.99992377,-0.02459462,-0.00311350,-0.03136119,-0.03731205,-0.00361765,-0.00099883,-0.00002465,-0.00000206,-0.00003186,-0.00003715,-0.00000256,,,,,,,,,,,,,,,,,,,,,,,
S,-0.5,1730147633117453312,,,,,,,,,,,,,,0.61003816,-0.34474212,-0.60720515,-0.37457752,-55.80578995,0.00415481,0.00710729,0.00404991,0.00675954,-0.02746209,-0.04670416,-0.00287857,-9.79145336,-0.22821799,-0.06895246,-0.02007198,0.10703734,0.17466907,9.77138138,0.33525532,0.24362153,-0.39106369,0.00300439
S,-0.5,1730147633118612480,,-1.00187087,-0.02423334,-0.00164796,-0.03459863,-0.03631692,-0.00149315,-0.00100256,-0.00002439,-0.00000171,-0.00003411,-0.00003513,-0.00000308,,,,,,,,,,,,,,,,,,,,,,,
S,-0.5,1730147633119607296,,-1.00207913,-0.02620580,-0.00339868,-0.03694005,-0.03343538,-0.00285757,-0.00100266,-0.00002573,-0.00000261,-0.00003755,-0.00003364,-0.00000193,,,,,,,,,,,,,,,,,,,,,,,
S,-0.5,1730147633119448320,,,,,,,,,,,,,,0.61000043,-0.34477329,-0.60722214,-0.37458280,-55.80578995,0.00415481,0.00710729,0.00404991,0.00675954,-0.03026196,-0.03953164,-0.00565073,-9.79520702,-0.24176928,-0.02017384,-0.02380753,0.09355542,0.22262459,9.77139950,0.33532470,0.24279843,-0.39106369,0.00300439
S,-0.5,1730147633120601344,,-1.00053298,-0.02832670,-0.00357979,-0.03435954,-0.02673509,-0.00647461,-0.00100088,-0.00002857,-0.00000410,-0.00003557,-0.00002704,-0.00000625,,,,,,,,,,,,,,,,,,,,,,,
S,-0.5,1730147633121594368,,-1.00108397,-0.02713769,-0.00280008,-0.03233423,-0.02592728,-0.00650431,-0.00100049,-0.00002803,-0.00000300,-0.00003188,-0.00002394,-0.00000765,,,,,,,,,,,,,,,,,,,,,,,
S,-0.5,1730147633121441536,,,,,,,,,,,,,,0.60996407,-0.34480441,-0.60723460,-0.37459314,-55.80578995,0.00415481,0.00710729,0.00404991,0.00675954,-0.03594713,-0.03602099,-0.00502627,-9.83274651,-0.25234795,-0.02563679,-0.06133270,0.08306506,0.21644555,9.77141380,0.33541301,0.24208234,-0.39106369,0.00300439
S,-0.5,1730147633122590208,,-1.00014138,-0.02719588,-0.00388933,-0.02823251,-0.02465785,-0.00578577,-0.00100049,-0.00002681,-0.00000344,-0.00002833,-0.00002463,-0.00000593,,,,,,,,,,,,,,,,,,,,,,,
S,-0.5,1730147633123585536,,-0.99802047,-0.02965207,-0.00224363,-0.02110903,-0.02683996,-0.00805541,-0.00099811,-0.00002922,-0.00000289,-0.00002110,-0.00002604,-0.00000741,,,,,,,,,,,,,,,,,,,,,,,
S,-0.5,1730147633123437312,,,,,,,,,,,,,,0.60993075,-0.34483150,-0.60724390,-0.37460729,-55.80578995,0.00415481,0.00710729,0.00404991,0.00675954,-0.03028278,-0.02632011,-0.01074310,-9.81147194,-0.27486998,-0.02941645,-0.04004765,0.06068090,0.21207830,9.77142429,0.33555087,0.24149475,-0.39106369,0.00300439
S,-0.5,1730147633124585216,,-0.99939609,-0.02970213,-0.00149873,-0.02158590,-0.02070503,-0.00686855,-0.00099847,-0.00003047,-0.00000111,-0.00001923,-0.00002251,-0.00000781,,,,,,,,,,,,,,,,,,,,,,,
S,-0.5,1730147633125583872,,-0.99870086,-0.03019952,-0.00064968,-0.02022189,-0.01528379,-0.00966208,-0.00099927,-0.00003013,-0.00000057,-0.00002062,-0.00001432,-0.00000878,,,,,,,,,,,,,,,,,,,,,,,
S,-0.5,1730147633125437184,,,,,,,,,,,,,,0.60990155,-0.34485048,-0.60725492,-0.37461945,-55.42529297,0.00415481,0.00710729,0.00404991,0.00675954,-0.01949966,-0.02841826,-0.01050714,-9.78807449,-0.28659403,-0.02833353,-0.01664543,0.04915243,0.21264255,9.77142906,0.33574647,0.24097608,-0.01056671,0.00300439
S,-0.5,1730147633126582272,,-0.99683046,-0.03123396,0.00030881,-0.01474427,-0.00676389,-0.00494872,-0.00099695,-0.00003120,0.00000040,-0.00001531,-0.00000659,-0.00000669,,,,,,,,,,,,,,,,,,,,,,,
S,-0.5,1730147633127579904,,-0.99510902,-0.03357551,-0.00106744,-0.01226615,-0.00037463,-0.00701758,-0.00099483,-0.00003348,-0.00000051,-0.00001097,0.00000118,-0.00000514,,,,,,,,,,,,,,,,,,,,,,,
S,-0.5,1730147633127436544,,,,,,,,,,,,,,0.60987705,-0.34486392,-0.60726535,-0.37463021,-55.42529297,0.00415481,0.00710729,0.00404991,0.00675954,-0.01902348,-0.01669480,-0.01186959,-9.79944229,-0.29542691,-0.00556552,-0.02800751,0.04052883,0.23498373,9.77143478,0.33595574,0.24054925,-0.01056671,0.00300439
S,-0.5,1730147633128577792,,-0.99702114,-0.03509963,-0.00182766,-0.01136712,0.00078680,-0.00831594,-0.00099613,-0.00003557,-0.00000213,-0.00001074,0.00000261,-0.00000874,,,,,,,,,,,,,,,,,,,,,,,
S,-0.5,1730147633129575168,,-0.99819446,-0.03408315,-0.00220971,-0.01679307,0.00566772,-0.00349428,-0.00099859,-0.00003475,-0.00000238,-0.00001552,0.00000515,-0.00000478,,,,,,,,,,,,,,,,,,,,,,,
S,-0.5,1730147633129434112,,,,,,,,,,,,,,0.60986292,-0.34486982,-0.60726893,-0.37464187,-55.42529297,0.00415481,0.00710729,0.00404991,0.00675954,-0.00937480,-0.00120236,-0.00823423,-9.75591469,-0.32831892,-0.00503009,0.01551628,0.00782627,0.23535292,9.77143097,0.33614519,0.24038300,-0.01056671,0.00300439
S,-0.5,1730147633130571520,,-0.99901921,-0.03422749,-0.00293293,-0.01648711,0.00519369,-0.00057315,-0.00099924,-0.00003388,-0.00000292,-0.00001827,0.00000683,0.00000043,,,,,,,,,,,,,,,,,,,,,,,
S,-0.5,1730147633131566848,,-0.99885952,-0.03627663,-0.00510809,-0.01441077,0.00994264,-0.00570219,-0.00099915,-0.00003595,-0.00000494,-0.00001469,0.00000893,-0.00000384,,,,,,,,,,,,,,,,,,,,,,,
S,-0.5,1730147633131429376,,,,,,,,,,,,,,0.60985637,-0.34487173,-0.60726684,-0.37465411,-55.42529297,0.00415481,0.00710729,0.00404991,0.00675954,-0.01392304,0.00277178,-0.00787645,-9.79282093,-0.34080711,-0.02336439,-0.02139664,-0.00451007,0.21704172,9.77142429,0.33629704,0.24040611,-0.01056671,0.00300439
S,-0.5,1730147633132561152,,-0.99903828,-0.03453379,-0.00591227,-0.01409096,0.01640345,-0.00808767,-0.00099896,-0.00003550,-0.00000646,-0.00001349,0.00001674,-0.00000929,,,,,,,,,,,,,,,,,,,,,,,
S,-0.5,1730147633133554432,,-0.99570966,-0.03349882,-0.00713717,-0.01484611,0.01434574,-0.00919169,-0.00099637,-0.00003313,-0.00000717,-0.00001461,0.00001678,-0.00000975,,,,,,,,,,,,,,,,,,,,,,,
S,-0.5,1730147633133423104,,,,,,,,,,,,,,0.60985178,-0.34487373,-0.60726148,-0.37466845,-55.42529297,0.00415481,0.00710729,0.00404991,0.00675954,-0.01309261,0.00655007,-0.00693332,-9.79832554,-0.35255519,-0.04847674,-0.02690887,-0.01612028,0.19202997,9.77141666,0.33643490,0.24050671,-0.01056671,0.00300439
S,-0.5,1730147633134550272,,-0.99406016,-0.03447971,-0.00940253,-0.02226725,0.01807843,-0.00535188,-0.00099330,-0.00003397,-0.00000938,-0.00002116,0.00001675,-0.00000640,,,,,,,,,,,,,,,,,,,,,,,
S,-0.5,1730147633135545088,,-0.99589932,-0.03663852,-0.01291922,-0.02214052,0.01438931,-0.00649072,-0.00099504,-0.00003656,-0.00001300,-0.00002453,0.00001625,-0.00000506,,,,,,,,,,,,,,,,,,,,,,,
S,-0.5,1730147633135418880,,,,,,,,,,,,,,0.60984993,-0.34487176,-0.60725361,-0.37468600,-55.42529297,0.00415481,0.00710729,0.00404991,0.00675954,-0.01300908,0.01439732,-0.01284326,-9.77106571,-0.32491529,-0.07031964,0.00033951,0.01170617,0.17040029,9.77140522,0.33662146,0.24071993,-0.01056671,0.00300439
S,-0.5,1730147633136539904,,-0.99783278,-0.03402128,-0.01377863,-0.02213687,0.01367611,-0.00538127,-0.00099807,-0.00003518,-0.00001474,-0.00002210,0.00001263,-0.00000595,,,,,,,,,,,,,,,,,,,,,,,
S,-0.5,1730147633137538304,,-0.99654752,-0.03193005,-0.01420480,-0.01687741,0.01730270,-0.00413344,-0.00099740,-0.00003148,-0.00001440,-0.00001783,0.00001642,-0.00000401,,,,,,,,,,,,,,,,,,,,,,,
S,-0.5,1730147633137417728,,,,,,,,,,,,,,0.60984838,-0.34487104,-0.60724187,-0.37470821,-55.42529297,0.00415481,0.00710729,0.00404991,0.00675954,-0.02292774,0.01386891,-0.00815439,-9.75800991,-0.35851550,-0.12749937,0.01338196,-0.02169701,0.11350904,9.77139187,0.33681849,0.24100842,-0.01056671,0.00300439
S,-0.5,1730147633138536192,,-0.99765384,-0.03196356,-0.01473281,-0.01056861,0.02058628,-0.00788950,-0.00099704,-0.00003129,-0.00001477,-0.00001004,0.00002114,-0.00000681,,,,,,,,,,,,,,,,,,,,,,,
S,-0.5,1730147633139533824,,-0.99806333,-0.03311510,-0.01787343,-0.01097935,0.01827613,-0.00552495,-0.00099834,-0.00003292,-0.00001747,-0.00000890,0.00001974,-0.00000715,,,,,,,,,,,,,,,,,,,,,,,
S,-0.5,1730147633139415296,,,,,,,,,,,,,,0.60984725,-0.34487313,-0.60722864,-0.37472957,-55.42529297,0.00415481,0.00710729,0.00404991,0.00675954,-0.01623382,0.01403794,-0.00709987,-9.78111839,-0.30868155,-0.14122789,-0.00973892,0.02827626,0.10006675,9.77137947,0.33695781,0.24129464,-0.01056671,0.00300439
S,-0.5,1730147633140531968,,-0.99980617,-0.03106119,-0.01921359,-0.01484761,0.01601629,0.00004582,-0.00099962,-0.00003180,-0.00001997,-0.00001428,0.00001569,-0.00000021,,,,,,,,,,,,,,,,,,,,,,,
S,-0.5,1730147633141529088,,-0.99897856,-0.03231787,-0.02159047,-0.01602848,0.01511943,-0.00349641,-0.00099968,-0.00003144,-0.00002159,-0.00001705,0.00001456,-0.00000108,,,,,,,,,,,,,,,,,,,,,,,
S,-0.5,1730147633141412864,,,,,,,,,,,,,,0.60984945,-0.34486917,-0.60721767,-0.37474743,-55.42529297,0.00415481,0.00710729,0.00404991,0.00675954,-0.00729855,0.01736223,-0.01024300,-9.79038143,-0.32280135,-0.17132965,-0.01901531,0.01432085,0.07027930,9.77136612,0.33712220,0.24160895,-0.01056671,0.00300439
S,-0.5,1730147633142525440,,-0.99938202,-0.03193128,-0.02335310,-0.01646567,0.01373419,-0.00267628,-0.00099905,-0.00003240,-0.00002379,-0.00001676,0.00001370,-0.00000395,,,,,,,,,,,,,,,,,,,,,,,
S,-0.5,1730147633143520768,,-1.00015569,-0.03110920,-0.02225088,-0.01535173,0.02036525,-0.00233562,-0.00100014,-0.00003114,-0.00002301,-0.00001569,0.00001872,-0.00000214,,,,,,,,,,,,,,,,,,,,,,,
S,-0.5,1730147633143408640,,,,,,,,,,,,,,0.60985178,-0.34486619,-0.60720688,-0.37476382,-55.42529297,0.00415481,0.00710729,0.00404991,0.00675954,-0.01544722,0.01218423,-0.00417244,-9.80354786,-0.30828026,-0.21167767,-0.03219414,0.02897719,0.03022705,9.77135372,0.33725744,0.24190472,-0.01056671,0.00300439
S,-0.5,1730147633144515328,,-1.00087535,-0.02881041,-0.02270751,-0.01467797,0.01714971,-0.00442488,-0.00100099,-0.00002897,-0.00002227,-0.00001445,0.00001984,-0.00000394,,,,,,,,,,,,,,,,,,,,,,,
S,-0.5,1730147633145508864,,-0.99953681,-0.02780414,-0.02207658,-0.01266075,0.01874989,-0.00718855,-0.00100001,-0.00002726,-0.00002234,-0.00001281,0.00001744,-0.00000735,,,,,,,,,,,,,,,,,,,,,,,
S,-0.5,1730147633145405440,,,,,,,,,,,,,,0.60985363,-0.34486702,-0.60719430,-0.37478060,-55.42529297,0.00415481,0.00710729,0.00404991,0.00675954,-0.01409526,0.01634069,-0.00522931,-9.80805779,-0.30533358,-0.22567670,-0.03671265,0.03200868,0.01651812,9.77134514,0.33734226,0.24219482,-0.01056671,0.00300439
S,-0.5,1730147633146504448,,-1.00076890,-0.02686428,-0.02316017,-0.01299240,0.01884108,-0.00899688,-0.00100012,-0.00002671,-0.00002276,-0.00001229,0.00001933,-0.00000955,,,,,,,,,,,,,,,,,,,,,,,
S,-0.5,1730147633147499264,,-1.00110984,-0.02642184,-0.02415851,-0.01420259,0.01955791,-0.00887965,-0.00100144,-0.00002620,-0.00002432,-0.00001409,0.00001946,-0.00000948,,,,,,,,,,,,,,,,,,,,,,,
S,-0.5,1730147633147401728,,,,,,,,,,,,,,0.60985583,-0.34486410,-0.60718268,-0.37479848,-55.42529297,0.00415481,0.00710729,0.00404991,0.00675954,-0.01121478,0.01505678,-0.01044429,-9.80673981,-0.26728550,-0.21904489,-0.03540802,0.07020366,0.02346471,9.77133179,0.33748916,0.24250960,-0.01056671,0.00300439
S,-0.5,1730147633148494848,,-1.00053012,-0.02551200,-0.02362453,-0.01577270,0.01781444,-0.01014387,-0.00100074,-0.00002554,-0.00002404,-0.00001587,0.00001836,-0.00000988,,,,,,,,,,,,,,,,,,,,,,,
S,-0.5,1730147633149489408,,-1.00262141,-0.02632867,-0.02427356,-0.01575413,0.02241520,-0.00743899,-0.00100206,-0.00002589,-0.00002399,-0.00001626,0.00002102,-0.00000833,,,,,,,,,,,,,,,,,,,,,,,
S,-0.5,1730147633149400320,,,,,,,,,,,,,,0.60985720,-0.34485832,-0.60717243,-0.37481824,-55.42529297,0.00415481,0.00710729,0.00404991,0.00675954,-0.01249025,0.01707788,-0.01256940,-9.82077217,-0.25696418,-0.23851787,-0.04945564,0.08074418,0.00431415,9.77131653,0.33770835,0.24283202,-0.01056671,0.00300439
S,-0.5,1730147633150487296,,-1.00046456,-0.02402189,-0.02494505,-0.01813837,0.02386207,-0.00809527,-0.00100152,-0.00002470,-0.00002503,-0.00001770,0.00002506,-0.00000712,,,,,,,,,,,,,,,,,,,,,,,
S,-0.5,1730147633151484160,,-1.00032902,-0.02327265,-0.02692636,-0.01641740,0.02310549,-0.01268161,-0.00099967,-0.00002267,-0.00002678,-0.00001749,0.00002370,-0.00001206,,,,,,,,,,,,,,,,,,,,,,,
S,-0.5,1730147633151400448,,,,,,,,,,,,,,0.60985887,-0.34485263,-0.60716057,-0.37483996,-55.42529297,0.00415481,0.00710729,0.00404991,0.00675954,-0.01465926,0.01864550,-0.01142570,-9.82682133,-0.25389954,-0.23522121,-0.05552101,0.08403674,0.00796922,9.77130032,0.33793628,0.24319042,-0.01056671,0.00300439
S,-0.5,1730147633152483328,,-1.00159240,-0.02215929,-0.02900440,-0.01576321,0.02386235,-0.01111952,-0.00100132,-0.00002212,-0.00002926,-0.00001533,0.00002348,-0.00001286,,,,,,,,,,,,,,,,,,,,,,,
S,-0.5,1730147633153481472,,-1.00148523,-0.02411379,-0.03038344,-0.01176482,0.02202356,-0.01329814,-0.00100191,-0.00002340,-0.00003079,-0.00001228,0.00002260,-0.00001241,,,,,,,,,,,,,,,,,,,,,,,
S,-0.5,1730147633153398784,,,,,,,,,,,,,,0.60986078,-0.34484640,-0.60714722,-0.37486422,-55.42529297,0.00415481,0.00710729,0.00404991,0.00675954,-0.01589100,0.02132467,-0.01515006,-9.80338478,-0.22236507,-0.26262221,-0.03210354,0.11582275,-0.01903054,9.77128124,0.33818781,0.24359167,-0.01056671,0.00300439
S,-0.5,1730147633154478592,,-1.00159335,-0.02512526,-0.02946779,-0.01165309,0.02126266,-0.01487654,-0.00100154,-0.00002556,-0.00003007,-0.00001040,0.00002082,-0.00001528,,,,,,,,,,,,,,,,,,,,,,,
S,-0.5,1730147633155474688,,-1.00062895,-0.02391130,-0.03126656,-0.00581946,0.02110258,-0.01884479,-0.00100084,-0.00002445,-0.00003065,-0.00000684,0.00002089,-0.00001863,,,,,,,,,,,,,,,,,,,,,,,
S,-0.5,1730147633155395072,,,,,,,,,,,,,,0.60986304,-0.34483740,-0.60713488,-0.37488881,-55.42529297,0.00415481,0.00710729,0.00404991,0.00675954,-0.01068504,0.02021974,-0.01549792,-9.82534981,-0.22951737,-0.30198848,-0.05408859,0.10896397,-0.05798219,9.77126122,0.33848134,0.24400629,-0.01056671,0.00300439
S,-0.5,1730147633156470272,,-1.00014341,-0.02223962,-0.03206091,-0.00393598,0.02213797,-0.02119987,-0.00099992,-0.00002216,-0.00003249,-0.00000242,0.00002190,-0.00002204,,,,,,,,,,,,,,,,,,,,,,,
S,-0.5,1730147633157464832,,-0.99820095,-0.02366794,-0.03390298,-0.00401658,0.02639512,-0.01957278,-0.00099840,-0.00002288,-0.00003382,-0.00000340,0.00002595,-0.00002062,,,,,,,,,,,,,,,,,,,,,,,
S,-0.5,1730147633157389568,,,,,,,,,,,,,,0.60986507,-0.34482369,-0.60712647,-0.37491167,-55.42529297,0.00415481,0.00710729,0.00404991,0.00675954,-0.00524579,0.01851062,-0.02171907,-9.81487370,-0.23981291,-0.30055699,-0.04363537,0.09902838,-0.05616711,9.77123833,0.33884129,0.24438988,-0.01056671,0.00300439
S,-0.5,1730147633158464256,,-0.99706167,-0.02471220,-0.03355020,-0.00325798,0.02776906,-0.01812837,-0.00099665,-0.00002498,-0.00003420,-0.00000342,0.00002887,-0.00001787,,,,,,,,,,,,,,,,,,,,,,,
S,-0.5,1730147633159462912,,-0.99815655,-0.02556642,-0.03577623,-0.00234035,0.02622599,-0.02214048,-0.00099760,-0.00002574,-0.00003526,-0.00000227,0.00002694,-0.00002095,,,,,,,,,,,,,,,,,,,,,,,
S,-0.5,1730147633159388416,,,,,,,,,,,,,,0.60986811,-0.34480417,-0.60712016,-0.37493491,-55.42529297,0.00415481,0.00710729,0.00404991,0.00675954,-0.00180438,0.02357238,-0.02371089,-9.79095364,-0.22433883,-0.33167541,-0.01974106,0.11494434,-0.08687204,9.77121258,0.33928317,0.24480337,-0.01056671,0.00300439
S,-0.5,1730147633160460544,,-0.99936509,-0.02662025,-0.03543591,-0.00229247,0.02511236,-0.02419146,-0.00099949,-0.00002670,-0.00003621,-0.00000201,0.00002482,-0.00002510,,,,,,,,,,,,,,,,,,,,,,,
S,-0.5,1730147633161457152,,-0.99970061,-0.02800118,-0.03686240,-0.00199867,0.02014137,-0.02288585,-0.00100002,-0.00002809,-0.00003649,-0.00000204,0.00002069,-0.00002378,,,,,,,,,,,,,,,,,,,,,,,
S,-0.5,1730147633161385216,,,,,,,,,,,,,,0.60987335,-0.34478140,-0.60711324,-0.37495852,-55.42529297,0.00415481,0.00710729,0.00404991,0.00675954,-0.00066759,0.02456486,-0.02404460,-9.78306484,-0.25246122,-0.34577584,-0.01187992,0.08728802,-0.10050111,9.77118492,0.33974925,0.24527474,-0.01056671,0.00300439
S,-0.5,1730147633162454784,,-0.99937588,-0.02958678,-0.03685251,-0.00808730,0.01916447,-0.02170804,-0.00099954,-0.00002974,-0.00003731,-0.00000689,0.00001776,-0.00002151,,,,,,,,,,,,,,,,,,,,,,,
S,-0.5,1730147633163451648,,-1.00281465,-0.02984941,-0.03705714,-0.00820307,0.01765718,-0.02313517,-0.00100209,-0.00003031,-0.00003702,-0.00001012,0.00001762,-0.00002250,,,,,,,,,,,,,,,,,,,,,,,
S,-0.5,1730147633163383552,,,,,,,,,,,,,,0.60987663,-0.34475824,-0.60710871,-0.37498176,-55.42529297,0.00415481,0.00710729,0.00404991,0.00675954,-0.00043879,0.01831124,-0.02686876,-9.80688858,-0.27542573,-0.35788929,-0.03573132,0.06482047,-0.11219534,9.77115726,0.34024620,0.24569395,-0.01056671,0.00300439
S,-0.5,1730147633164448512,,-1.00373018,-0.03152788,-0.03950318,-0.00825167,0.01329770,-0.02614739,-0.00100466,-0.00003131,-0.00003912,-0.00000828,0.00001361,-0.00002605,,,,,,,,,,,,,,,,,,,,,,,
S,-0.5,1730147633165444352,,-1.00169122,-0.03288214,-0.04236268,-0.01011814,0.01605480,-0.02566991,-0.00100235,-0.00003317,-0.00004262,-0.00000979,0.00001417,-0.00002672,,,,,,,,,,,,,,,,,,,,,,,
S,-0.5,1730147633165379840,,,,,,,,,,,,,,0.60987544,-0.34473875,-0.60710585,-0.37500626,-55.42529297,0.00415481,0.00710729,0.00404991,0.00675954,-0.00852208,0.01524126,-0.02559380,-9.82711220,-0.29720497,-0.36301079,-0.05598164,0.04355159,-0.11698592,9.77113056,0.34075657,0.24602488,-0.01056671,0.00300439
S,-0.5,1730147633166439424,,-1.00246656,-0.03917498,-0.04231320,-0.01328493,0.02053425,-0.02000555,-0.00100168,-0.00003846,-0.00004323,-0.00001330,0.00002060,-0.00002088,,,,,,,,,,,,,,,,,,,,,,,
S,-0.5,1730147633167433728,,-1.00398874,-0.03916513,-0.04266708,-0.01360049,0.01631345,-0.02377553,-0.00100396,-0.00004117,-0.00004259,-0.00001455,0.00001851,-0.00002129,,,,,,,,,,,,,,,,,,,,,,,
S,-0.5,1730147633167374336,,,,,,,,,,,,,,0.60987037,-0.34472197,-0.60710400,-0.37503287,-55.79521942,0.00415481,0.00710729,0.00404991,0.00675954,-0.00819647,0.01178737,-0.02980832,-9.82972717,-0.32529065,-0.41797695,-0.05862236,0.01600280,-0.17168249,9.77110481,0.34129345,0.24629445,-0.38049316,0.00300439
S,-0.5,1730147633168427008,,-1.00539422,-0.03945351,-0.04557572,-0.01847483,0.01544462,-0.02702383,-0.00100562,-0.00003940,-0.00004516,-0.00001769,0.00001426,-0.00002763,,,,,,,,,,,,,,,,,,,,,,,
S,-0.5,1730147633169421568,,-1.00364220,-0.03912202,-0.04775662,-0.01621824,0.01534685,-0.02560452,-0.00100441,-0.00003927,-0.00004829,-0.00001818,0.00001509,-0.00002690,,,,,,,,,,,,,,,,,,,,,,,
S,-0.5,1730147633169369088,,,,,,,,,,,,,,0.60986507,-0.34470674,-0.60710084,-0.37506062,-55.79521942,0.00415481,0.00710729,0.00404991,0.00675954,-0.01295316,0.01612736,-0.02438038,-9.84547424,-0.40373996,-0.41763440,-0.07439423,-0.06192273,-0.17105943,9.77108002,0.34181723,0.24657497,-0.38049316,0.00300439
S,-0.5,1730147633170417408,,-0.99808383,-0.03786200,-0.04965440,-0.01358065,0.01504975,-0.02391611,-0.00099854,-0.00003799,-0.00005000,-0.00001334,0.00001507,-0.00002377,,,,,,,,,,,,,,,,,,,,,,,
S,-0.5,1730147633171412224,,-0.99758416,-0.03894246,-0.05371192,-0.01554006,0.01067776,-0.01804830,-0.00099591,-0.00003834,-0.00005358,-0.00001434,0.00001138,-0.00001858,,,,,,,,,,,,,,,,,,,,,,,
S,-0.5,1730147633171364352,,,,,,,,,,,,,,0.60985851,-0.34469384,-0.60709590,-0.37509114,-55.79521942,0.00415481,0.00710729,0.00404991,0.00675954,-0.01658177,0.01270923,-0.02998921,-9.84987640,-0.38514626,-0.47352678,-0.07882309,-0.04280496,-0.22666045,9.77105331,0.34234130,0.24686633,-0.38049316,0.00300439
S,-0.5,1730147633172406784,,-0.99920011,-0.04193674,-0.05183010,-0.00899131,0.01140277,-0.01561059,-0.00099875,-0.00004174,-0.00005346,-0.00001080,0.00000988,-0.00001419,,,,,,,,,,,,,,,,,,,,,,,
S,-0.5,1730147633173400320,,-0.99514300,-0.04275397,-0.05237506,-0.00605669,0.00931815,-0.01662817,-0.00099639,-0.00004356,-0.00005168,-0.00000451,0.00000993,-0.00001567,,,,,,,,,,,,,,,,,,,,,,,
S,-0.5,1730147633173358080,,,,,,,,,,,,,,0.60985035,-0.34468302,-0.60709268,-0.37511954,-55.79521942,0.00415481,0.00710729,0.00404991,0.00675954,-0.01274646,0.00899872,-0.02166982,-9.76649857,-0.37603259,-0.52542549,0.00453186,-0.03319347,-0.27833718,9.77103043,0.34283912,0.24708830,-0.38049316,0.00300439
S,-0.5,1730147633174392832,,-0.99383926,-0.04550103,-0.05092046,-0.00593843,0.00358082,-0.01785268,-0.00099278,-0.00004526,-0.00005136,-0.00000503,0.00000396,-0.00001795,,,,,,,,,,,,,,,,,,,,,,,
S,-0.5,1730147633175390464,,-0.99222022,-0.04709183,-0.05144633,-0.00354246,0.00167743,-0.01515471,-0.00099210,-0.00004768,-0.00005089,-0.00000394,0.00000020,-0.00001603,,,,,,,,,,,,,,,,,,,,,,,
S,-0.5,1730147633175355648,,,,,,,,,,,,,,0.60984510,-0.34467241,-0.60709167,-0.37513947,-55.79521942,0.00415481,0.00710729,0.00404991,0.00675954,-0.00290733,0.00754884,-0.01876018,-9.77129269,-0.42716542,-0.50677848,-0.00028038,-0.08393514,-0.25952274,9.77101231,0.34323028,0.24725574,-0.38049316,0.00300439
S,-0.5,1730147633176387328,,-0.99323195,-0.04916475,-0.05326768,-0.00867682,0.00290909,-0.01261800,-0.00099253,-0.00004929,-0.00005310,-0.00000698,0.00000208,-0.00001222,,,,,,,,,,,,,,,,,,,,,,,
S,-0.5,1730147633177383168,,-0.99384779,-0.04755134,-0.05446078,-0.00790029,-0.00086788,-0.01442266,-0.00099406,-0.00004850,-0.00005482,-0.00000968,0.00000021,-0.00001329,,,,,,,,,,,,,,,,,,,,,,,
S,-0.5,1730147633177351680,,,,,,,,,,,,,,0.60983872,-0.34466150,-0.60709560,-0.37515354,-55.79521942,0.00415481,0.00710729,0.00404991,0.00675954,-0.00234212,-0.00218182,-0.01912752,-9.72917175,-0.46755219,-0.49903557,0.04182720,-0.12395263,-0.25172555,9.77099895,0.34359956,0.24731003,-0.38049316,0.00300439
S,-0.5,1730147633178377984,,-0.99232370,-0.04956593,-0.05606072,-0.00662667,-0.00418503,-0.01480617,-0.00099280,-0.00004869,-0.00005615,-0.00000661,-0.00000478,-0.00001531,,,,,,,,,,,,,,,,,,,,,,,
S,-0.5,1730147633179374592,,-0.99140131,-0.05054466,-0.05583679,-0.00552511,-0.00726213,-0.01325228,-0.00099108,-0.00005101,-0.00005639,-0.00000532,-0.00000776,-0.00001366,,,,,,,,,,,,,,,,,,,,,,,
S,-0.5,1730147633179348480,,,,,,,,,,,,,,0.60982895,-0.34465471,-0.60710108,-0.37516677,-55.79521942,0.00415481,0.00710729,0.00404991,0.00675954,-0.00807768,-0.00216842,-0.01638015,-9.74837875,-0.47566560,-0.53763604,0.02260780,-0.13172179,-0.29036501,9.77098656,0.34394380,0.24727103,-0.38049316,0.00300439
S,-0.5,1730147633180370432,,-0.99277252,-0.05018782,-0.05517554,-0.00742337,-0.00294630,-0.00561241,-0.00099223,-0.00005056,-0.00005522,-0.00000673,-0.00000471,-0.00000651,,,,,,,,,,,,,,,,,,,,,,,
S,-0.5,1730147633181365248,,-0.99372274,-0.05073569,-0.05556830,-0.00640186,-0.01098139,-0.00365581,-0.00099399,-0.00005052,-0.00005529,-0.00000719,-0.00000815,-0.00000158,,,,,,,,,,,,,,,,,,,,,,,
S,-0.5,1730147633181343232,,,,,,,,,,,,,,0.60981697,-0.34465057,-0.60710835,-0.37517834,-55.79521942,0.00415481,0.00710729,0.00404991,0.00675954,-0.00372183,-0.01013776,-0.01674952,-9.71921253,-0.50021738,-0.55296260,0.05176640,-0.15595296,-0.30580768,9.77097893,0.34426442,0.24715492,-0.38049316,0.00300439
S,-0.5,1730147633182361088,,-0.99465847,-0.05196663,-0.05304212,-0.00824033,-0.01910661,-0.00681897,-0.00099479,-0.00005192,-0.00005363,-0.00000758,-0.00002019,-0.00000562,,,,,,,,,,,,,,,,,,,,,,,
S,-0.5,1730147633183356160,,-0.99225229,-0.05148690,-0.05211012,-0.00448465,-0.02114851,-0.00226635,-0.00099299,-0.00005197,-0.00005148,-0.00000575,-0.00002336,-0.00000410,,,,,,,,,,,,,,,,,,,,,,,
S,-0.5,1730147633183338496,,,,,,,,,,,,,,0.60980505,-0.34465078,-0.60711658,-0.37518415,-55.79521942,0.00415481,0.00710729,0.00404991,0.00675954,-0.00559368,-0.01052655,-0.00467230,-9.74767876,-0.49545306,-0.54217219,0.02329731,-0.15098110,-0.29521635,9.77097607,0.34447196,0.24695584,-0.38049316,0.00300439
S,-0.5,1730147633184350720,,-0.99219984,-0.05308183,-0.05530207,-0.00540426,-0.02108753,-0.00268909,-0.00099144,-0.00005264,-0.00005443,-0.00000404,-0.00002175,-0.00000116,,,,,,,,,,,,,,,,,,,,,,,
S,-0.5,1730147633185344256,,-0.99327642,-0.05088457,-0.05463835,-0.01051151,-0.02407347,-0.00725687,-0.00099306,-0.00005179,-0.00005577,-0.00000988,-0.00002351,-0.00000656,,,,,,,,,,,,,,,,,,,,,,,
S,-0.5,1730147633185332224,,,,,,,,,,,,,,0.60979015,-0.34465694,-0.60712785,-0.37518448,-55.79521942,0.00415481,0.00710729,0.00404991,0.00675954,-0.00415420,-0.02574268,-0.00719322,-9.73787975,-0.50961006,-0.50479805,0.03310108,-0.16502473,-0.25819290,9.77098083,0.34458533,0.24660517,-0.38049316,0.00300439
S,-0.5,1730147633186337024,,-0.99501377,-0.04885478,-0.05185577,-0.00779335,-0.02377502,-0.00292316,-0.00099504,-0.00004852,-0.00005215,-0.00000991,-0.00002478,-0.00000516,,,,,,,,,,,,,,,,,,,,,,,
S,-0.5,1730147633187328768,,-0.99583870,-0.04809708,-0.04911985,-0.00499321,-0.02683198,-0.00508361,-0.00099624,-0.00004759,-0.00004873,-0.00000464,-0.00002618,-0.00000331,,,,,,,,,,,,,,,,,,,,,,,
S,-0.5,1730147633187330560,,,,,,,,,,,,,,0.60976917,-0.34466532,-0.60714418,-0.37518448,-55.79521942,0.00415481,0.00710729,0.00404991,0.00675954,-0.00827827,-0.02589037,-0.00965436,-9.73863220,-0.50790495,-0.54696453,0.03235626,-0.16315845,-0.30085987,9.77098846,0.34474650,0.24610467,-0.38049316,0.00300439
S,-0.5,1730147633188326400,,-0.99628896,-0.04782605,-0.04865505,-0.00440818,-0.02664966,-0.00257577,-0.00099647,-0.00004763,-0.00004787,-0.00000362,-0.00002766,-0.00000372,,,,,,,,,,,,,,,,,,,,,,,
S,-0.5,1730147633189323008,,-0.99591178,-0.04593201,-0.04791974,-0.00121634,-0.02526623,-0.00013435,-0.00099612,-0.00004619,-0.00004791,-0.00000161,-0.00002546,0.00000022,,,,,,,,,,,,,,,,,,,,,,,
S,-0.5,1730147633189327104,,,,,,,,,,,,,,0.60974765,-0.34467411,-0.60716140,-0.37518343,-55.79521942,0.00415481,0.00710729,0.00404991,0.00675954,-0.00303873,-0.02856039,-0.00640444,-9.76979446,-0.46668380,-0.47788864,0.00120163,-0.12178311,-0.23231256,9.77099609,0.34490070,0.24557608,-0.38049316,0.00300439
S,-0.5,1730147633190318592,,-0.99718893,-0.04489053,-0.04819182,0.00122703,-0.03036226,0.00193457,-0.00099684,-0.00004448,-0.00004791,0.00000180,-0.00002900,0.00000234,,,,,,,,,,,,,,,,,,,,,,,
S,-0.5,1730147633191313152,,-0.99665046,-0.04350198,-0.04675180,0.00503189,-0.03035574,-0.00052216,-0.00099715,-0.00004342,-0.00004710,0.00000512,-0.00003198,0.00000058,,,,,,,,,,,,,,,,,,,,,,,
S,-0.5,1730147633191321856,,,,,,,,,,,,,,0.60972828,-0.34468281,-0.60717964,-0.37517747,-55.79521942,0.00415481,0.00710729,0.00404991,0.00675954,-0.00001203,-0.02783838,-0.00287250,-9.76863670,-0.45296472,-0.46979314,0.00237083,-0.10797396,-0.22476661,9.77100754,0.34499076,0.24502653,-0.38049316,0.00300439
S,-0.5,1730147633192307200,,-0.99445200,-0.04423742,-0.04594568,0.00228739,-0.02888739,0.00106449,-0.00099468,-0.00004366,-0.00004563,0.00000400,-0.00002915,-0.00000001,,,,,,,,,,,,,,,,,,,,,,,
S,-0.5,1730147633193300224,,-0.99667561,-0.04536564,-0.04485146,0.00263838,-0.03079513,0.00060960,-0.00099557,-0.00004539,-0.00004479,0.00000170,-0.00002998,0.00000120,,,,,,,,,,,,,,,,,,,,,,,
S,-0.5,1730147633193315840,,,,,,,,,,,,,,0.60970956,-0.34469080,-0.60720080,-0.37516636,-55.79521942,0.00415481,0.00710729,0.00404991,0.00675954,0.00671636,-0.03435788,-0.00251007,-9.77874851,-0.42583331,-0.46189111,-0.00772762,-0.08078834,-0.21747416,9.77102089,0.34504497,0.24441695,-0.38049316,0.00300439
S,-0.5,1730147633194299392,,-0.99766463,-0.04431742,-0.04359011,0.00736522,-0.03587993,0.00244734,-0.00099819,-0.00004487,-0.00004347,0.00000662,-0.00003556,0.00000197,,,,,,,,,,,,,,,,,,,,,,,
S,-0.5,1730147633195297792,,-0.99561107,-0.04107915,-0.04115849,0.00436186,-0.03228894,0.00131656,-0.00099630,-0.00004133,-0.00004120,0.00000641,-0.00003456,0.00000211,,,,,,,,,,,,,,,,,,,,,,,
S,-0.5,1730147633195314176,,,,,,,,,,,,,,0.60969019,-0.34469894,-0.60722375,-0.37515315,-55.79521942,0.00415481,0.00710729,0.00404991,0.00675954,0.00329903,-0.03235995,-0.00189555,-9.76322460,-0.44516936,-0.43927532,0.00781059,-0.10007921,-0.19551419,9.77103519,0.34509015,0.24376114,-0.38049316,0.00300439
S,-0.5,1730147633196295168,,-0.99513578,-0.04133333,-0.04174436,0.00151466,-0.03451942,0.00013407,-0.00099457,-0.00004026,-0.00004086,0.00000108,-0.00003297,-0.00000001,,,,,,,,,,,,,,,,,,,,,,,
S,-0.5,1730147633197291520,,-0.99367714,-0.03954237,-0.04022375,0.00124664,-0.03515735,0.00448332,-0.00099379,-0.00003995,-0.00004069,0.00000039,-0.00003575,0.00000332,,,,,,,,,,,,,,,,,,,,,,,
S,-0.5,1730147633197310720,,,,,,,,,,,,,,0.60967058,-0.34470761,-0.60724747,-0.37513867,-55.79521942,0.00415481,0.00710729,0.00404991,0.00675954,0.00801016,-0.03693876,-0.00098587,-9.77035618,-0.40534654,-0.40402287,0.00069523,-0.06022549,-0.16094202,9.77105141,0.34512106,0.24308085,-0.38049316,0.00300439
S,-0.5,1730147633198287104,,-0.99383706,-0.03822036,-0.03889474,0.00212199,-0.03882806,0.00061735,-0.00099334,-0.00003789,-0.00003865,0.00000188,-0.00003836,0.00000270,,,,,,,,,,,,,,,,,,,,,,,
S,-0.5,1730147633199281664,,-0.99505115,-0.03843062,-0.03744280,0.00252634,-0.03498916,0.00214699,-0.00099488,-0.00003797,-0.00003728,0.00000273,-0.00003686,0.00000064,,,,,,,,,,,,,,,,,,,,,,,
S,-0.5,1730147633199305472,,,,,,,,,,,,,,0.60964936,-0.34471840,-0.60727239,-0.37512293,-55.79521942,0.00415481,0.00710729,0.00404991,0.00675954,0.00198706,-0.03813025,0.00022386,-9.74575901,-0.39175999,-0.39899620,0.02531052,-0.04662874,-0.15665236,9.77106953,0.34513125,0.24234384,-0.38049316,0.00300439
S,-0.5,1730147633200283648,,-0.99699974,-0.03897663,-0.03446113,0.00267644,-0.03624058,0.00322194,-0.00099703,-0.00003894,-0.00003454,0.00000278,-0.00003479,0.00000351,,,,,,,,,,,,,,,,,,,,,,,
S,-0.5,1730147633201284608,,-0.99614114,-0.03814963,-0.03201195,0.00583414,-0.03728204,0.00338702,-0.00099692,-0.00003847,-0.00003151,0.00000531,-0.00003749,0.00000370,,,,,,,,,,,,,,,,,,,,,,,
S,-0.5,1730147633201306880,,,,,,,,,,,,,,0.60962653,-0.34473032,-0.60729754,-0.37510836,-55.79521942,0.00415481,0.00710729,0.00404991,0.00675954,0.00432953,-0.03923390,-0.00245434,-9.75645447,-0.37237597,-0.36562809,0.01463223,-0.02722168,-0.12404256,9.77108669,0.34515429,0.24158554,-0.38049316,0.00300439
S,-0.5,1730147633202285312,,-0.99602604,-0.03825171,-0.02940713,0.00876527,-0.04055411,0.00099170,-0.00099577,-0.00003797,-0.00002910,0.00000924,-0.00004029,0.00000148,,,,,,,,,,,,,,,,,,,,,,,
S,-0.5,1730147633203284992,,-0.99479145,-0.03795379,-0.03043282,0.00614223,-0.03947157,0.00064733,-0.00099498,-0.00003804,-0.00002942,0.00000755,-0.00004071,-0.00000005,,,,,,,,,,,,,,,,,,,,,,,
S,-0.5,1730147633203306752,,,,,,,,,,,,,,0.60960412,-0.34474117,-0.60732406,-0.37509188,-55.79521942,0.00415481,0.00710729,0.00404991,0.00675954,0.00690622,-0.03986999,0.00060635,-9.77641964,-0.37729797,-0.30898413,-0.00531387,-0.03212300,-0.06817493,9.77110577,0.34517497,0.24080920,-0.38049316,0.00300439
S,-0.5,1730147633204283904,,-0.99424797,-0.03829794,-0.03191142,0.00977918,-0.03988738,0.00270226,-0.00099395,-0.00003814,-0.00003197,0.00000828,-0.00003947,0.00000222,,,,,,,,,,,,,,,,,,,,,,,
S,-0.5,1730147633205281792,,-0.99343866,-0.03652657,-0.03020478,0.00854494,-0.04928479,0.00306878,-0.00099341,-0.00003696,-0.00003098,0.00000993,-0.00004771,0.00000366,,,,,,,,,,,,,,,,,,,,,,,
S,-0.5,1730147633205304832,,,,,,,,,,,,,,0.60958123,-0.34475106,-0.60735279,-0.37507349,-55.79521942,0.00415481,0.00710729,0.00404991,0.00675954,0.00914984,-0.04308861,-0.00314540,-9.75741196,-0.37305027,-0.28848511,0.01371288,-0.02784643,-0.04849155,9.77112484,0.34520385,0.23999356,-0.38049316,0.00300439
S,-0.5,1730147633206279168,,-0.99292880,-0.03789093,-0.02902893,0.00597816,-0.04387466,0.00430528,-0.00099276,-0.00003708,-0.00002870,0.00000605,-0.00004785,0.00000420,,,,,,,,,,,,,,,,,,,,,,,
S,-0.5,1730147633207275520,,-0.99406195,-0.03843827,-0.02785588,0.00483552,-0.04201581,0.00128080,-0.00099369,-0.00003877,-0.00002770,0.00000423,-0.00004063,0.00000222,,,,,,,,,,,,,,,,,,,,,,,
S,-0.5,1730147633207301376,,,,,,,,,,,,,,0.60955602,-0.34476146,-0.60738552,-0.37505195,-55.59440231,0.00415481,0.00710729,0.00404991,0.00675954,0.01152488,-0.05008856,0.00056345,-9.74205112,-0.36243263,-0.30385724,0.02909565,-0.01719877,-0.06478107,9.77114677,0.34523386,0.23907617,-0.17967606,0.00300439
S,-0.5,1730147633208271104,,-0.99279988,-0.03932177,-0.02624590,0.00626964,-0.04425819,-0.00276298,-0.00099339,-0.00003934,-0.00002616,0.00000565,-0.00004326,-0.00000299,,,,,,,,,,,,,,,,,,,,,,,
S,-0.5,1730147633209265664,,-0.99401587,-0.03679865,-0.02560958,0.00507131,-0.04388120,0.00007325,-0.00099339,-0.00003754,-0.00002521,0.00000575,-0.00004466,-0.00000173,,,,,,,,,,,,,,,,,,,,,,,
S,-0.5,1730147633209296384,,,,,,,,,,,,,,0.60953069,-0.34477353,-0.60741723,-0.37503073,-55.59440231,0.00417012,0.00710103,0.00405743,0.00675147,0.00582412,-0.04301027,-0.00086894,-9.74480534,-0.38023591,-0.27159843,0.02636337,-0.03499478,-0.03343764,9.77116871,0.34524113,0.23816079,-0.17967606,0.00300439
S,-0.5,1730147633210259456,,-0.99355197,-0.03979912,-0.02344236,0.00783187,-0.04554980,-0.00340208,-0.00099402,-0.00003845,-0.00002363,0.00000695,-0.00004513,-0.00000187,,,,,,,,,,,,,,,,,,,,,,,
S,-0.5,1730147633211252736,,-0.99093318,-0.04039737,-0.02407522,0.00658813,-0.04399273,-0.00066518,-0.00099126,-0.00004124,-0.00002327,0.00000769,-0.00004481,-0.00000227,,,,,,,,,,,,,,,,,,,,,,,
S,-0.5,1730147633211289600,,,,,,,,,,,,,,0.60950452,-0.34478468,-0.60744810,-0.37501293,-55.59440231,0.00417012,0.00710103,0.00405743,0.00675147,0.00734355,-0.04704230,-0.00482208,-9.74186039,-0.36812395,-0.24725114,0.02932739,-0.02282393,-0.00997531,9.77118778,0.34530002,0.23727582,-0.17967606,0.00300439
S,-0.5,1730147633212248832,,-0.99321580,-0.04044266,-0.02498431,0.00551459,-0.04579232,0.00129072,-0.00099197,-0.00004062,-0.00002502,0.00000531,-0.00004497,0.00000181,,,,,,,,,,,,,,,,,,,,,,,
S,-0.5,1730147633213250048,,-0.99240083,-0.04132601,-0.02431051,0.00809542,-0.04542641,0.00522696,-0.00099328,-0.00004118,-0.00002472,0.00000728,-0.00004607,0.00000513,,,,,,,,,,,,,,,,,,,,,,,
S,-0.5,1730147633213290752,,,,,,,,,,,,,,0.60947680,-0.34479415,-0.60748166,-0.37499472,-55.59440231,0.00417012,0.00710103,0.00405743,0.00675147,0.00929084,-0.04718560,-0.00536152,-9.72095394,-0.40446335,-0.22820468,0.05025196,-0.05905986,0.00814316,9.77120590,0.34540349,0.23634784,-0.17967606,0.00300439
S,-0.5,1730147633214250752,,-0.99095857,-0.04112219,-0.02338208,0.01199980,-0.04497122,0.00773150,-0.00099096,-0.00004144,-0.00002334,0.00001211,-0.00004494,0.00000853,,,,,,,,,,,,,,,,,,,,,,,
S,-0.5,1730147633215250688,,-0.99167359,-0.03798762,-0.01971054,0.00777927,-0.04483830,0.00170592,-0.00099108,-0.00003849,-0.00002008,0.00000979,-0.00004472,0.00000360,,,,,,,,,,,,,,,,,,,,,,,
S,-0.5,1730147633215290880,,,,,,,,,,,,,,0.60945028,-0.34480554,-0.60751480,-0.37497374,-55.59440231,0.00417012,0.00710103,0.00405743,0.00675147,0.00888280,-0.04844455,0.00204153,-9.74070549,-0.40383455,-0.24244207,0.03052235,-0.05839404,-0.00703442,9.77122784,0.34544051,0.23540765,-0.17967606,0.00300439
S,-0.5,1730147633216249600,,-0.99540043,-0.03841809,-0.01837819,0.00825362,-0.04488229,0.00221244,-0.00099495,-0.00003734,-0.00001745,0.00000682,-0.00004483,0.00000020,,,,,,,,,,,,,,,,,,,,,,,
S,-0.5,1730147633217247488,,-0.99571162,-0.04095070,-0.01623382,0.00522863,-0.04129922,0.00340695,-0.00099684,-0.00004063,-0.00001620,0.00000593,-0.00004196,0.00000335,,,,,,,,,,,,,,,,,,,,,,,
S,-0.5,1730147633217291264,,,,,,,,,,,,,,0.60942525,-0.34481806,-0.60754728,-0.37495035,-55.59440231,0.00417012,0.00710103,0.00405743,0.00675147,0.01138694,-0.04709639,0.00050508,-9.71921921,-0.37748414,-0.19693834,0.05203247,-0.03206345,0.03752929,9.77125168,0.34542069,0.23446763,-0.17967606,0.00300439
S,-0.5,1730147633218247168,,-0.99477738,-0.04156075,-0.01460840,0.00336225,-0.03649451,0.00209013,-0.00099505,-0.00004226,-0.00001422,0.00000274,-0.00003623,0.00000271,,,,,,,,,,,,,,,,,,,,,,,
S,-0.5,1730147633219245824,,-0.99489015,-0.04192817,-0.01317055,0.00514103,-0.03606784,0.00515482,-0.00099457,-0.00004206,-0.00001291,0.00000422,-0.00003462,0.00000418,,,,,,,,,,,,,,,,,,,,,,,
S,-0.5,1730147633219289856,,,,,,,,,,,,,,0.60940087,-0.34482968,-0.60757858,-0.37492859,-55.59440231,0.00417012,0.00710103,0.00405743,0.00675147,0.00752724,-0.04434306,0.00025830,-9.77567387,-0.39841786,-0.15886362,-0.00440121,-0.05300039,0.07470371,9.77127266,0.34541747,0.23356733,-0.17967606,0.00300439
S,-0.5,1730147633220243456,,-0.99642944,-0.04313338,-0.01397717,0.00931130,-0.03735095,0.00429745,-0.00099619,-0.00004303,-0.00001337,0.00000912,-0.00003698,0.00000543,,,,,,,,,,,,,,,,,,,,,,,
S,-0.5,1730147633221240320,,-0.99723583,-0.04172289,-0.01400277,0.00757648,-0.03549156,0.00454855,-0.00099758,-0.00004236,-0.00001425,0.00000922,-0.00003624,0.00000423,,,,,,,,,,,,,,,,,,,,,,,
S,-0.5,1730147633221286912,,,,,,,,,,,,,,0.60937870,-0.34484127,-0.60760564,-0.37491012,-55.59440231,0.00417012,0.00710103,0.00405743,0.00675147,0.00582177,-0.03699481,0.00108600,-9.75342274,-0.41242331,-0.12664826,0.01786995,-0.06701574,0.10611947,9.77129269,0.34540758,0.23276773,-0.17967606,0.00300439
S,-0.5,1730147633222236416,,-0.99697226,-0.04302630,-0.01397947,0.00592888,-0.02959402,0.00409635,-0.00099728,-0.00004234,-0.00001399,0.00000568,-0.00003007,0.00000426,,,,,,,,,,,,,,,,,,,,,,,
S,-0.5,1730147633223231488,,-0.99597657,-0.04396715,-0.01305666,0.00798240,-0.02675873,0.00636088,-0.00099607,-0.00004421,-0.00001322,0.00000708,-0.00002540,0.00000581,,,,,,,,,,,,,,,,,,,,,,,
S,-0.5,1730147633223281920,,,,,,,,,,,,,,0.60935903,-0.34485105,-0.60763139,-0.37489134,-55.59440231,0.00417012,0.00710103,0.00405743,0.00675147,0.01081714,-0.03861664,0.00113718,-9.78291035,-0.41543803,-0.13979323,-0.01159954,-0.07004854,0.09223022,9.77131081,0.34538949,0.23202345,-0.17967606,0.00300439
S,-0.5,1730147633224231936,,-0.99721181,-0.04499405,-0.01040544,0.00561218,-0.02322540,0.00407855,-0.00099667,-0.00004511,-0.00001059,0.00000670,-0.00002296,0.00000521,,,,,,,,,,,,,,,,,,,,,,,
S,-0.5,1730147633225231360,,-0.99805021,-0.04421533,-0.01176655,0.00359593,-0.02271994,0.00742892,-0.00099829,-0.00004468,-0.00001068,0.00000321,-0.00002169,0.00000609,,,,,,,,,,,,,,,,,,,,,,,
S,-0.5,1730147633225283072,,,,,,,,,,,,,,0.60934293,-0.34485871,-0.60765463,-0.37487280,-55.59440231,0.00417012,0.00710103,0.00405743,0.00675147,0.00868287,-0.02777546,0.00271266,-9.76814556,-0.43356147,-0.12961738,0.00318146,-0.08820462,0.10175057,9.77132702,0.34535685,0.23136795,-0.17967606,0.00300439
S,-0.5,1730147633226231552,,-0.99883515,-0.04308253,-0.01328748,0.00483829,-0.02068246,0.00596305,-0.00099896,-0.00004304,-0.00001344,0.00000397,-0.00002089,0.00000730,,,,,,,,,,,,,,,,,,,,,,,
S,-0.5,1730147633227230720,,-0.99840921,-0.04490909,-0.01352447,0.00832476,-0.02034260,0.00562959,-0.00099874,-0.00004422,-0.00001397,0.00000809,-0.00001976,0.00000522,,,,,,,,,,,,,,,,,,,,,,,
S,-0.5,1730147633227282432,,,,,,,,,,,,,,0.60933059,-0.34486604,-0.60767198,-0.37485802,-55.59440231,0.00417012,0.00710103,0.00405743,0.00675147,0.00480581,-0.02406591,0.00300086,-9.78989124,-0.43819654,-0.10469051,-0.01854992,-0.09289244,0.12616657,9.77134132,0.34530410,0.23085707,-0.17967606,0.00300439
S,-0.5,1730147633228229376,,-0.99775302,-0.04551765,-0.01332120,0.00767250,-0.02164521,0.00476539,-0.00099774,-0.00004599,-0.00001343,0.00000890,-0.00002130,0.00000482,,,,,,,,,,,,,,,,,,,,,,,
S,-0.5,1730147633229227008,,-0.99796122,-0.04583238,-0.01331248,0.00629171,-0.01191828,0.00601434,-0.00099771,-0.00004597,-0.00001325,0.00000633,-0.00001410,0.00000551,,,,,,,,,,,,,,,,,,,,,,,
S,-0.5,1730147633229280000,,,,,,,,,,,,,,0.60932004,-0.34487185,-0.60768789,-0.37484407,-55.59440231,0.00417012,0.00710103,0.00405743,0.00675147,0.00968478,-0.02213462,0.00213074,-9.79426003,-0.43361893,-0.13695593,-0.02290535,-0.08836204,0.09344512,9.77135468,0.34525689,0.23040105,-0.17967606,0.00300439
S,-0.5,1730147633230223872,,-0.99860287,-0.04703390,-0.01403475,0.00830392,-0.00794521,0.00837020,-0.00099855,-0.00004692,-0.00001390,0.00000750,-0.00000557,0.00000834,,,,,,,,,,,,,,,,,,,,,,,
S,-0.5,1730147633231220224,,-0.99897170,-0.04608863,-0.01315505,0.00464959,-0.00936379,0.01108042,-0.00099911,-0.00004664,-0.00001354,0.00000595,-0.00000784,0.00001134,,,,,,,,,,,,,,,,,,,,,,,
S,-0.5,1730147633231276288,,,,,,,,,,,,,,0.60931218,-0.34487510,-0.60770220,-0.37483066,-55.59440231,0.00417012,0.00710103,0.00405743,0.00675147,0.00793298,-0.01647903,0.00241950,-9.78423691,-0.45080036,-0.12993780,-0.01287270,-0.10558340,0.10007906,9.77136421,0.34521696,0.23001686,-0.17967606,0.00300439
S,-0.5,1730147633232215552,,-0.99821782,-0.04695409,-0.01400623,0.00296469,-0.01398689,0.01032687,-0.00099847,-0.00004650,-0.00001357,0.00000211,-0.00001360,0.00001133,,,,,,,,,,,,,,,,,,,,,,,
S,-0.5,1730147633233210112,,-0.99780363,-0.04810074,-0.01306663,0.00426710,-0.01824039,0.01287645,-0.00099764,-0.00004817,-0.00001351,0.00000349,-0.00001894,0.00001217,,,,,,,,,,,,,,,,,,,,,,,
S,-0.5,1730147633233271296,,,,,,,,,,,,,,0.60930872,-0.34487861,-0.60771137,-0.37481812,-55.59440231,0.00417012,0.00710103,0.00405743,0.00675147,0.00755208,-0.01022022,0.00824505,-9.79791164,-0.45740756,-0.13282716,-0.02653790,-0.11229119,0.09692331,9.77137375,0.34511638,0.22975047,-0.17967606,0.00300439
S,-0.5,1730147633234203904,,-0.99697775,-0.04697389,-0.01302518,0.00025597,-0.01499802,0.01503529,-0.00099700,-0.00004754,-0.00001273,0.00000140,-0.00001694,0.00001545,,,,,,,,,,,,,,,,,,,,,,,
S,-0.5,1730147633235200256,,-0.99608284,-0.04667271,-0.01399245,-0.00084922,-0.01105651,0.01392623,-0.00099598,-0.00004637,-0.00001380,-0.00000193,-0.00001074,0.00001481,,,,,,,,,,,,,,,,,,,,,,,
S,-0.5,1730147633235267840,,,,,,,,,,,,,,0.60930455,-0.34488595,-0.60772038,-0.37480354,-55.59440231,0.00417012,0.00710103,0.00405743,0.00675147,0.00509217,-0.02131797,0.00908051,-9.78349686,-0.47236493,-0.13246664,-0.01210976,-0.12741497,0.09697069,9.77138710,0.34494996,0.22943734,-0.17967606,0.00300439
S,-0.5,1730147633236196608,,-0.99690294,-0.04648862,-0.01605738,-0.00406057,-0.01413865,0.01446351,-0.00099647,-0.00004643,-0.00001599,-0.00000383,-0.00001232,0.00001401,,,,,,,,,,,,,,,,,,,,,,,
S,-0.5,1730147633237192192,,-0.99562156,-0.04853968,-0.01328589,-0.00518142,-0.01284999,0.01565915,-0.00099612,-0.00004811,-0.00001445,-0.00000600,-0.00001407,0.00001561,,,,,,,,,,,,,,,,,,,,,,,
S,-0.5,1730147633237263616,,,,,,,,,,,,,,0.60929883,-0.34489727,-0.60772818,-0.37478983,-55.59440231,0.00417012,0.00710103,0.00405743,0.00675147,-0.00032718,-0.01311940,0.01172207,-9.76725197,-0.45472246,-0.13537142,0.00415134,-0.10997477,0.09372853,9.77140331,0.34474769,0.22909994,-0.17967606,0.00300439
S,-0.5,1730147633238192384,,-0.99493778,-0.04800918,-0.01395464,-0.00402287,-0.01058169,0.01710535,-0.00099465,-0.00004876,-0.00001295,-0.00000459,-0.00001058,0.00001722,,,,,,,,,,,,,,,,,,,,,,,
S,-0.5,1730147633239191552,,-0.99523181,-0.04712600,-0.01370411,-0.00585249,-0.01349289,0.01521364,-0.00099496,-0.00004712,-0.00001396,-0.00000515,-0.00001224,0.00001602,,,,,,,,,,,,,,,,,,,,,,,
S,-0.5,1730147633239263232,,,,,,,,,,,,,,0.60929358,-0.34491161,-0.60773212,-0.37477878,-55.59440231,0.00417012,0.00710103,0.00405743,0.00675147,-0.00440195,-0.01644403,0.01252009,-9.76855564,-0.47178119,-0.14167267,0.00286198,-0.12727165,0.08714013,9.77141762,0.34450954,0.22881280,-0.17967606,0.00300439
S,-0.5,1730147633240190208,,-0.99591208,-0.04636570,-0.01562552,-0.00739528,-0.01497814,0.01227678,-0.00099588,-0.00004622,-0.00001520,-0.00000770,-0.00001563,0.00001221,,,,,,,,,,,,,,,,,,,,,,,
S,-0.5,1730147633241188352,,-0.99723715,-0.04515769,-0.01480405,-0.00745668,-0.01510570,0.02075520,-0.00099721,-0.00004513,-0.00001556,-0.00000794,-0.00001556,0.00001828,,,,,,,,,,,,,,,,,,,,,,,
S,-0.5,1730147633241261312,,,,,,,,,,,,,,0.60928756,-0.34492758,-0.60773569,-0.37476808,-55.59440231,0.00417012,0.00710103,0.00405743,0.00675147,-0.00355326,-0.01462076,0.01292484,-9.75723171,-0.46206680,-0.13692407,0.01420212,-0.11780763,0.09158836,9.77143383,0.34425917,0.22851244,-0.17967606,0.00300439
S,-0.5,1730147633242186496,,-0.99676073,-0.04504105,-0.01532359,-0.00604302,-0.01755238,0.01947640,-0.00099727,-0.00004468,-0.00001497,-0.00000632,-0.00001715,0.00002241,,,,,,,,,,,,,,,,,,,,,,,
S,-0.5,1730147633243184384,,-0.99923480,-0.04262629,-0.01598334,-0.00469932,-0.01136423,0.02193697,-0.00099863,-0.00004303,-0.00001603,-0.00000449,-0.00001327,0.00002108,,,,,,,,,,,,,,,,,,,,,,,
S,-0.5,1730147633243259904,,,,,,,,,,,,,,0.60928124,-0.34494522,-0.60773891,-0.37475690,-55.59440231,0.00417012,0.00710103,0.00405743,0.00675147,-0.00633860,-0.01793412,0.01518708,-9.77931786,-0.44261989,-0.15263966,-0.00786686,-0.09863791,0.07555833,9.77145100,0.34398198,0.22819799,-0.17967606,0.00300439
S,-0.5,1730147633244182272,,-0.99835294,-0.03956761,-0.01547278,-0.00355643,-0.00959983,0.02117826,-0.00099930,-0.00003935,-0.00001578,-0.00000334,-0.00000795,0.00002210,,,,,,,,,,,,,,,,,,,,,,,
S,-0.5,1730147633245179392,,-0.99810046,-0.03816786,-0.01269380,-0.00424922,-0.00649282,0.02064914,-0.00099787,-0.00003745,-0.00001304,-0.00000376,-0.00000650,0.00002050,,,,,,,,,,,,,,,,,,,,,,,
S,-0.5,1730147633245257472,,,,,,,,,,,,,,0.60927558,-0.34496439,-0.60774165,-0.37474379,-55.59440231,0.00417012,0.00710103,0.00405743,0.00675147,-0.00289546,-0.01564618,0.01799001,-9.79325008,-0.42196077,-0.15719236,-0.02178192,-0.07830465,0.07067841,9.77146816,0.34365612,0.22787078,-0.17967606,0.00300439
S,-0.5,1730147633246176512,,-1.00015759,-0.03761902,-0.01238969,-0.00706142,-0.01561813,0.01911024,-0.00099970,-0.00003727,-0.00001156,-0.00000677,-0.00001297,0.00001922,,,,,,,,,,,,,,,,,,,,,,,
S,-0.5,1730147633247172864,,-1.00252044,-0.03643910,-0.01370033,-0.00693809,-0.00977948,0.02074061,-0.00100275,-0.00003648,-0.00001337,-0.00000786,-0.00001374,0.00001995,,,,,,,,,,,,,,,,,,,,,,,
S,-0.5,1730147633247254272,,,,,,,,,,,,,,0.60927391,-0.34498128,-0.60774207,-0.37473032,-55.59440231,0.00417012,0.00710103,0.00405743,0.00675147,-0.00216153,-0.00887454,0.01741093,-9.78571987,-0.36724636,-0.12784262,-0.01423264,-0.02393737,0.09979090,9.77148724,0.34330899,0.22763352,-0.17967606,0.00300439
S,-0.5,1730147633248168960,,-1.00510561,-0.03764962,-0.01029602,-0.00642907,-0.00538352,0.02505033,-0.00100539,-0.00003705,-0.00001133,-0.00000648,-0.00000432,0.00002479,,,,,,,,,,,,,,,,,,,,,,,
S,-0.5,1730147633249164032,,-1.00860906,-0.03687781,-0.00142761,-0.01254906,-0.00612142,0.02591766,-0.00100880,-0.00003740,-0.00000196,-0.00001128,-0.00000459,0.00002713,,,,,,,,,,,,,,,,,,,,,,,
S,-0.5,1730147633249249792,,,,,,,,,,,,,,0.60927129,-0.34499896,-0.60774219,-0.37471813,-55.66838837,0.00417012,0.00710103,0.00405743,0.00675147,-0.00625763,-0.01612381,0.01686170,-9.83357906,-0.35773402,-0.13106929,-0.06207466,-0.01476198,0.09632304,9.77150440,0.34297204,0.22739233,-0.25366211,0.00300439
S,-0.5,1730147633250158848,,-1.01106882,-0.03314352,0.00245401,-0.01850908,-0.00203225,0.02301523,-0.00101174,-0.00003358,0.00000457,-0.00001937,-0.00000301,0.00002382,,,,,,,,,,,,,,,,,,,,,,,
S,-0.5,1730147633251158016,,-1.01279032,-0.03138618,0.00537589,-0.02166903,0.00351948,0.01969989,-0.00101326,-0.00003052,0.00000608,-0.00002299,0.00000381,0.00001938,,,,,,,,,,,,,,,,,,,,,,,
S,-0.5,1730147633251248896,,,,,,,,,,,,,,0.60926920,-0.34502056,-0.60773921,-0.37470654,-55.66838837,0.00417012,0.00710103,0.00405743,0.00675147,-0.00967707,-0.00696691,0.02403905,-9.89290428,-0.36679971,-0.01917470,-0.12138081,-0.02423078,0.20799796,9.77152348,0.34256893,0.22717266,-0.25366211,0.00300439
S,-0.5,1730147633252156672,,-1.01420832,-0.02927353,0.00805570,-0.03033063,0.01292981,0.02171283,-0.00101450,-0.00002910,0.00000850,-0.00002976,0.00001299,0.00002029,,,,,,,,,,,,,,,,,,,,,,,
S,-0.5,1730147633253154304,,-1.01322401,-0.03018488,0.00601747,-0.03559658,0.01923836,0.02030726,-0.00101385,-0.00002935,0.00000724,-0.00003740,0.00002109,0.00002120,,,,,,,,,,,,,,,,,,,,,,,
S,-0.5,1730147633253246976,,,,,,,,,,,,,,0.60926974,-0.34504333,-0.60772812,-0.37470275,-55.66838837,0.00417012,0.00710103,0.00405743,0.00675147,-0.02139402,0.00143357,0.01628553,-9.93669128,-0.29927137,0.05962426,-0.16515160,0.04289621,0.28675422,9.77153969,0.34216759,0.22712997,-0.25366211,0.00300439
S,-0.5,1730147633254151424,,-1.01151347,-0.03091202,0.00395615,-0.03357251,0.02466738,0.01649978,-0.00101151,-0.00003107,0.00000368,-0.00003562,0.00002569,0.00001674,,,,,,,,,,,,,,,,,,,,,,,
S,-0.5,1730147633255147520,,-1.01192963,-0.02931249,-0.00005207,-0.02835990,0.03170561,0.01347813,-0.00101131,-0.00002983,0.00000002,-0.00002866,0.00003215,0.00001282,,,,,,,,,,,,,,,,,,,,,,,
S,-0.5,1730147633255243264,,,,,,,,,,,,,,0.60927242,-0.34506744,-0.60770535,-0.37471312,-55.66838837,0.00417012,0.00710103,0.00405743,0.00675147,-0.03579887,0.01870872,0.01811052,-9.94251347,-0.28779334,0.07100112,-0.17096710,0.05402505,0.29834706,9.77154636,0.34181839,0.22734593,-0.25366211,0.00300439
S,-0.5,1730147633256143872,,-1.00810969,-0.02751515,-0.00397703,-0.02203351,0.03365646,0.01563348,-0.00100894,-0.00002733,-0.00000454,-0.00002152,0.00003554,0.00001428,,,,,,,,,,,,,,,,,,,,,,,
S,-0.5,1730147633257139456,,-1.00548244,-0.02491134,-0.00835944,-0.01157182,0.03681782,0.01246705,-0.00100474,-0.00002481,-0.00000881,-0.00001146,0.00003686,0.00001373,,,,,,,,,,,,,,,,,,,,,,,
S,-0.5,1730147633257238784,,,,,,,,,,,,,,0.60928154,-0.34508598,-0.60767400,-0.37473211,-55.66838837,0.00417012,0.00710103,0.00405743,0.00675147,-0.02706470,0.02977611,0.00972230,-9.91755962,-0.29258046,0.00019138,-0.14601421,0.04895142,0.22803296,9.77154541,0.34153187,0.22784159,-0.25366211,0.00300439
S,-0.5,1730147633258134016,,-1.00242138,-0.02482578,-0.01136869,-0.00453667,0.03260145,0.01610298,-0.00100214,-0.00002401,-0.00001222,-0.00000248,0.00003437,0.00001443,,,,,,,,,,,,,,,,,,,,,,,
S,-0.5,1730147633259127808,,-1.00177598,-0.02500430,-0.00958066,0.00316770,0.03159020,0.01441106,-0.00100092,-0.00002494,-0.00001086,0.00000401,0.00003043,0.00001588,,,,,,,,,,,,,,,,,,,,,,,
S,-0.5,1730147633259232512,,,,,,,,,,,,,,0.60929847,-0.34509134,-0.60764396,-0.37474817,-55.66838837,0.00417012,0.00710103,0.00405743,0.00675147,-0.00986084,0.03448559,0.01063555,-9.85317039,-0.24332622,-0.08642267,-0.08163357,0.09799841,0.14205790,9.77153683,0.34132463,0.22848056,-0.25366211,0.00300439
S,-0.5,1730147633260125952,,-1.00030029,-0.02509778,-0.01225313,0.00396869,0.03625306,0.01613875,-0.00100036,-0.00002514,-0.00001120,0.00000628,0.00003508,0.00001529,,,,,,,,,,,,,,,,,,,,,,,
S,-0.5,1730147633261123072,,-0.99889582,-0.02616353,-0.01007871,0.00667007,0.03701217,0.01297044,-0.00099868,-0.00002600,-0.00001132,0.00000643,0.00003836,0.00001410,,,,,,,,,,,,,,,,,,,,,,,
S,-0.5,1730147633261229568,,,,,,,,,,,,,,0.60932112,-0.34508803,-0.60762006,-0.37475312,-55.66838837,0.00417012,0.00710103,0.00405743,0.00675147,0.00560528,0.02805300,0.01278296,-9.81566048,-0.24462211,-0.10653022,-0.04413033,0.09647256,0.12256278,9.77153015,0.34109467,0.22909300,-0.25366211,0.00300439
S,-0.5,1730147633262119424,,-0.99992383,-0.02502989,-0.00928174,-0.00016544,0.03712444,0.01444487,-0.00099929,-0.00002558,-0.00000873,0.00000194,0.00003735,0.00001317,,,,,,,,,,,,,,,,,,,,,,,
S,-0.5,1730147633263114752,,-0.99923176,-0.02475340,-0.00758311,-0.00555343,0.03809007,0.01078659,-0.00099968,-0.00002444,-0.00000764,-0.00000675,0.00003795,0.00001192,,,,,,,,,,,,,,,,,,,,,,,
S,-0.5,1730147633263228672,,,,,,,,,,,,,,0.60934740,-0.34507909,-0.60759902,-0.37475279,-55.66838837,0.00417012,0.00710103,0.00405743,0.00675147,0.00803223,0.03597965,0.01100319,-9.79371834,-0.25497043,-0.11105767,-0.02219486,0.08589515,0.11865710,9.77152348,0.34086558,0.22971477,-0.25366211,0.00300439
S,-0.5,1730147633264112896,,-1.00090265,-0.02368688,-0.00737092,-0.01480252,0.03374558,0.01238028,-0.00100038,-0.00002379,-0.00000687,-0.00001484,0.00003484,0.00001093,,,,,,,,,,,,,,,,,,,,,,,
S,-0.5,1730147633265110272,,-1.00272274,-0.02693186,-0.00596910,-0.02319399,0.02868515,0.01308107,-0.00100292,-0.00002600,-0.00000616,-0.00002461,0.00002822,0.00001346,,,,,,,,,,,,,,,,,,,,,,,
S,-0.5,1730147633265226496,,,,,,,,,,,,,,0.60937333,-0.34507084,-0.60757434,-0.37475821,-55.66838837,0.00417012,0.00710103,0.00405743,0.00675147,-0.00515228,0.03557152,0.00882778,-9.80355835,-0.23970285,-0.07490435,-0.03204441,0.10096976,0.15550803,9.77151394,0.34067261,0.23041238,-0.25366211,0.00300439
S,-0.5,1730147633266106880,,-1.00300133,-0.02538650,-0.00994355,-0.03196692,0.02893591,0.00954110,-0.00100353,-0.00002670,-0.00000878,-0.00003304,0.00002728,0.00001041,,,,,,,,,,,,,,,,,,,,,,,
S,-0.5,1730147633267102464,,-1.00441241,-0.02566760,-0.01480905,-0.03425437,0.03120062,0.00555855,-0.00100424,-0.00002513,-0.00001519,-0.00003663,0.00003087,0.00000516,,,,,,,,,,,,,,,,,,,,,,,
S,-0.5,1730147633267222528,,,,,,,,,,,,,,0.60939074,-0.34507376,-0.60754704,-0.37477151,-55.66838837,0.00417012,0.00710103,0.00405743,0.00675147,-0.02301538,0.02584285,0.01036822,-9.83532429,-0.25499821,-0.06036695,-0.06381798,0.08548000,0.17065521,9.77150631,0.34047821,0.23102215,-0.25366211,0.00300439
S,-0.5,1730147633268097536,,-1.00429916,-0.02483753,-0.01765498,-0.03418135,0.03478596,0.00426116,-0.00100477,-0.00002508,-0.00001869,-0.00003492,0.00003486,0.00000323,,,,,,,,,,,,,,,,,,,,,,,
S,-0.5,1730147633269091840,,-1.00501072,-0.02335192,-0.01797110,-0.03071508,0.03095869,0.00634205,-0.00100485,-0.00002336,-0.00001882,-0.00003132,0.00003280,0.00000555,,,,,,,,,,,,,,,,,,,,,,,
S,-0.5,1730147633269216768,,,,,,,,,,,,,,0.60939956,-0.34508505,-0.60751748,-0.37479472,-55.66838837,0.00417012,0.00710103,0.00405743,0.00675147,-0.03503327,0.02849011,0.00206249,-9.84827709,-0.24639291,-0.14896747,-0.07677937,0.09395033,0.08260538,9.77149773,0.34034324,0.23157285,-0.25366211,0.00300439
S,-0.5,1730147633270085632,,-1.00521421,-0.02362700,-0.01865034,-0.02724540,0.03576834,0.00928779,-0.00100540,-0.00002310,-0.00001863,-0.00002677,0.00003368,0.00000941,,,,,,,,,,,,,,,,,,,,,,,
S,-0.5,1730147633271078400,,-1.00640678,-0.02283216,-0.02147526,-0.02476135,0.03217192,0.00812891,-0.00100625,-0.00002306,-0.00002118,-0.00002411,0.00003436,0.00000928,,,,,,,,,,,,,,,,,,,,,,,
S,-0.5,1730147633271209216,,,,,,,,,,,,,,0.60940713,-0.34509513,-0.60748661,-0.37482318,-55.66838837,0.00417012,0.00710103,0.00405743,0.00675147,-0.02972359,0.03041650,0.00245816,-9.85416698,-0.22905821,-0.18455510,-0.08268070,0.11122587,0.04761554,9.77148628,0.34028408,0.23217064,-0.25366211,0.00300439
S,-0.5,1730147633272074496,,-1.00623560,-0.02185808,-0.02202681,-0.02270545,0.03183377,0.00930959,-0.00100665,-0.00002178,-0.00002283,-0.00002229,0.00003075,0.00000873,,,,,,,,,,,,,,,,,,,,,,,
S,-0.5,1730147633273069824,,-1.00645030,-0.02221022,-0.02376919,-0.02341192,0.03157566,0.00553281,-0.00100636,-0.00002184,-0.00002363,-0.00002263,0.00003151,0.00000659,,,,,,,,,,,,,,,,,,,,,,,
S,-0.5,1730147633273204992,,,,,,,,,,,,,,0.60941869,-0.34510198,-0.60745633,-0.37484717,-55.66838837,0.00417012,0.00710103,0.00405743,0.00675147,-0.02251023,0.03197748,0.00618427,-9.86798763,-0.22618209,-0.20768777,-0.09651279,0.11400522,0.02511035,9.77147484,0.34018731,0.23279811,-0.25366211,0.00300439
S,-0.5,1730147633274064384,,-1.00770497,-0.02201790,-0.02428184,-0.02416415,0.02991336,0.00381479,-0.00100755,-0.00002217,-0.00002474,-0.00002425,0.00003013,0.00000292,,,,,,,,,,,,,,,,,,,,,,,
S,-0.5,1730147633275057920,,-1.00532818,-0.02156808,-0.02516198,-0.02518219,0.02835890,0.00298251,-0.00100616,-0.00002159,-0.00002517,-0.00002524,0.00002811,0.00000259,,,,,,,,,,,,,,,,,,,,,,,
S,-0.5,1730147633275204352,,,,,,,,,,,,,,0.60943156,-0.34510675,-0.60742790,-0.37486801,-55.66838837,0.00417012,0.00710103,0.00405743,0.00675147,-0.02103113,0.02913609,0.00350199,-9.86898804,-0.21414156,-0.23171398,-0.09752274,0.12594081,0.00169657,9.77146530,0.34008238,0.23341055,-0.25366211,0.00300439
S,-0.5,1730147633276056064,,-1.00379920,-0.02218357,-0.02831899,-0.02511888,0.02537344,0.00387281,-0.00100332,-0.00002193,-0.00002803,-0.00002545,0.00002542,0.00000345,,,,,,,,,,,,,,,,,,,,,,,
S,-0.5,1730147633277053184,,-1.00231194,-0.02167926,-0.02977812,-0.02771759,0.02485311,-0.00082798,-0.00100210,-0.00002197,-0.00003052,-0.00002723,0.00002400,0.00000031,,,,,,,,,,,,,,,,,,,,,,,
S,-0.5,1730147633277201920,,,,,,,,,,,,,,0.60944110,-0.34511098,-0.60740227,-0.37489012,-55.66838837,0.00417012,0.00710103,0.00405743,0.00675147,-0.02363864,0.02573337,-0.00050597,-9.86705208,-0.21171200,-0.24678513,-0.09560013,0.12833044,-0.01282290,9.77145195,0.34004244,0.23396224,-0.25366211,0.00300439
S,-0.5,1730147633278050048,,-0.99929458,-0.02326243,-0.03148427,-0.02635652,0.02542974,-0.00029487,-0.00099937,-0.00002281,-0.00003164,-0.00002743,0.00002516,-0.00000189,,,,,,,,,,,,,,,,,,,,,,,
S,-0.5,1730147633279045888,,-1.00025499,-0.02267104,-0.03424497,-0.02846619,0.02107578,-0.00710926,-0.00099912,-0.00002328,-0.00003429,-0.00002765,0.00002205,-0.00000570,,,,,,,,,,,,,,,,,,,,,,,
S,-0.5,1730147633279197696,,,,,,,,,,,,,,0.60944635,-0.34511611,-0.60737920,-0.37491426,-55.66838837,0.00417012,0.00710103,0.00405743,0.00675147,-0.02562727,0.02161851,-0.00278334,-9.82719994,-0.21542336,-0.29927751,-0.05575943,0.12464009,-0.06483619,9.77144051,0.34006345,0.23444133,-0.25366211,0.00300439
S,-0.5,1730147633280040960,,-1.00004494,-0.02212404,-0.03332111,-0.02634591,0.02208504,-0.00462188,-0.00100039,-0.00002204,-0.00003437,-0.00002740,0.00002052,-0.00000724,,,,,,,,,,,,,,,,,,,,,,,
S,-0.5,1730147633281035008,,-0.99837130,-0.02326228,-0.03331249,-0.02697191,0.02536143,-0.00437342,-0.00099861,-0.00002288,-0.00003302,-0.00002618,0.00002509,-0.00000363,,,,,,,,,,,,,,,,,,,,,,,
S,-0.5,1730147633281191680,,,,,,,,,,,,,,0.60944778,-0.34512061,-0.60735893,-0.37494060,-55.66838837,0.00417012,0.00710103,0.00405743,0.00675147,-0.02605163,0.01967156,-0.00879429,-9.79802036,-0.22832577,-0.33623278,-0.02659416,0.11183880,-0.10137095,9.77142620,0.34016457,0.23486184,-0.25366211,0.00300439
S,-0.5,1730147633282028544,,-0.99832147,-0.02559169,-0.03393874,-0.02570497,0.02530543,-0.00868764,-0.00099780,-0.00002553,-0.00003382,-0.00002613,0.00002636,-0.00000782,,,,,,,,,,,,,,,,,,,,,,,
S,-0.5,1730147633283021056,,-0.99622297,-0.02559302,-0.03492642,-0.02185041,0.02621200,-0.00849498,-0.00099659,-0.00002633,-0.00003495,-0.00002215,0.00002603,-0.00000990,,,,,,,,,,,,,,,,,,,,,,,
S,-0.5,1730147633283184384,,,,,,,,,,,,,,0.60944897,-0.34512335,-0.60733914,-0.37496799,-55.66838837,0.00417012,0.00710103,0.00405743,0.00675147,-0.02458524,0.02270857,-0.00671967,-9.79300404,-0.22438650,-0.32381916,-0.02159405,0.11591740,-0.08852714,9.77140999,0.34030390,0.23529202,-0.25366211,0.00300439
S,-0.5,1730147633284017408,,-0.99548447,-0.02705646,-0.03666960,-0.01537354,0.02377210,-0.01162009,-0.00099495,-0.00002679,-0.00003667,-0.00001532,0.00002450,-0.00001099,,,,,,,,,,,,,,,,,,,,,,,
S,-0.5,1730147633285012992,,-0.99480581,-0.02637808,-0.03639389,-0.01499192,0.02092233,-0.00607048,-0.00099469,-0.00002697,-0.00003700,-0.00001300,0.00002066,-0.00000807,,,,,,,,,,,,,,,,,,,,,,,
S,-0.5,1730147633285180416,,,,,,,,,,,,,,0.60945159,-0.34512243,-0.60731995,-0.37499571,-55.66838837,0.00417012,0.00710103,0.00405743,0.00675147,-0.02054945,0.02365063,-0.01299609,-9.77319336,-0.25825268,-0.34270585,-0.00180054,0.08223310,-0.10694472,9.77139282,0.34048578,0.23576112,-0.25366211,0.00300439
S,-0.5,1730147633286008064,,-0.99610883,-0.02665881,-0.03907565,-0.01327026,0.01972902,-0.00774711,-0.00099566,-0.00002639,-0.00003850,-0.00001346,0.00001904,-0.00000568,,,,,,,,,,,,,,,,,,,,,,,
S,-0.5,1730147633287002112,,-0.99425405,-0.02779099,-0.04105204,-0.01403816,0.01580730,-0.00905968,-0.00099501,-0.00002767,-0.00004155,-0.00001335,0.00001614,-0.00000935,,,,,,,,,,,,,,,,,,,,,,,
S,-0.5,1730147633287174144,,,,,,,,,,,,,,0.60945427,-0.34511697,-0.60730535,-0.37502000,-55.66838837,0.00417012,0.00710103,0.00405743,0.00675147,-0.01140158,0.01828463,-0.01116638,-9.75461674,-0.26445523,-0.36283165,0.01675797,0.07625908,-0.12665024,9.77137470,0.34071431,0.23618141,-0.25366211,0.00300439
S,-0.5,1730147633287995392,,-0.99150443,-0.02765027,-0.04106429,-0.01483595,0.02029112,-0.00971314,-0.00099141,-0.00002804,-0.00004169,-0.00001494,0.00001823,-0.00001001,,,,,,,,,,,,,,,,,,,,,,,
S,-0.5,1730147633288992768,,-0.99105132,-0.02752697,-0.04156240,-0.01639100,0.02157861,-0.00906804,-0.00099026,-0.00002750,-0.00004148,-0.00001636,0.00002277,-0.00000939,,,,,,,,,,,,,,,,,,,,,,,
S,-0.5,1730147633289171200,,,,,,,,,,,,,,0.60945559,-0.34511086,-0.60729533,-0.37503976,-55.72123337,0.00417012,0.00710103,0.00405743,0.00675147,-0.01175261,0.01376116,-0.01244773,-9.75767422,-0.27139854,-0.40743044,0.01368523,0.06954107,-0.17092787,9.77135944,0.34093961,0.23650257,-0.30650711,0.00300439
S,-0.5,1730147633289989376,,-0.99183303,-0.02734083,-0.04222027,-0.01643606,0.02080020,-0.00841556,-0.00099155,-0.00002734,-0.00004226,-0.00001692,0.00002135,-0.00000833,,,,,,,,,,,,,,,,,,,,,,,
S,-0.5,1730147633290984960,,-0.99247152,-0.03007871,-0.04383981,-0.01305495,0.01804507,-0.00728097,-0.00099260,-0.00002952,-0.00004375,-0.00001368,0.00001830,-0.00000728,,,,,,,,,,,,,,,,,,,,,,,
S,-0.5,1730147633291167232,,,,,,,,,,,,,,0.60945672,-0.34510496,-0.60728425,-0.37506130,-55.72123337,0.00417012,0.00710103,0.00405743,0.00675147,-0.01476438,0.02039311,-0.01248609,-9.71111870,-0.26972726,-0.40674233,0.06022358,0.07144961,-0.16989663,9.77134228,0.34117687,0.23684570,-0.30650711,0.00300439
S,-0.5,1730147633291980288,,-0.98987871,-0.03195760,-0.04778516,-0.00962028,0.01265788,-0.00376089,-0.00099055,-0.00003249,-0.00004758,-0.00000917,0.00001276,-0.00000404,,,,,,,,,,,,,,,,,,,,,,,
S,-0.5,1730147633292974592,,-0.98694950,-0.03188625,-0.04918664,-0.00647453,0.00771639,-0.01145414,-0.00098666,-0.00003250,-0.00005019,-0.00000595,0.00000690,-0.00000894,,,,,,,,,,,,,,,,,,,,,,,
S,-0.5,1730147633293161472,,,,,,,,,,,,,,0.60945880,-0.34509939,-0.60727209,-0.37508270,-55.72123337,0.00417012,0.00710103,0.00405743,0.00675147,-0.01208559,0.01591905,-0.01037227,-9.73412323,-0.28951126,-0.42908704,0.03720284,0.05188304,-0.19187762,9.77132607,0.34139431,0.23720942,-0.30650711,0.00300439
S,-0.5,1730147633293967872,,-0.99023378,-0.03283568,-0.04936241,-0.00318382,0.00610068,-0.00996660,-0.00098870,-0.00003264,-0.00004978,-0.00000278,0.00000482,-0.00001269,,,,,,,,,,,,,,,,,,,,,,,
S,-0.5,1730147633294960640,,-0.99029469,-0.03467931,-0.05060404,-0.00672718,0.01049674,-0.00895174,-0.00099133,-0.00003465,-0.00005043,-0.00000504,0.00000918,-0.00000866,,,,,,,,,,,,,,,,,,,,,,,
S,-0.5,1730147633295153920,,,,,,,,,,,,,,0.60945797,-0.34509376,-0.60726666,-0.37509805,-55.72123337,0.00417012,0.00710103,0.00405743,0.00675147,-0.00435478,0.00452058,-0.01202871,-9.67579460,-0.31869367,-0.49216992,0.09551907,0.02291575,-0.25475517,9.77131367,0.34160942,0.23741475,-0.30650711,0.00300439
S,-0.5,1730147633295956992,,-0.99030572,-0.03664369,-0.05094394,-0.00209430,0.00919006,-0.00801042,-0.00099032,-0.00003687,-0.00005128,-0.00000406,0.00001083,-0.00000786,,,,,,,,,,,,,,,,,,,,,,,
S,-0.5,1730147633296952320,,-0.99257106,-0.03755531,-0.05070128,-0.00084350,0.00805082,-0.00536149,-0.00099216,-0.00003801,-0.00005085,0.00000040,0.00000784,-0.00000554,,,,,,,,,,,,,,,,,,,,,,,
S,-0.5,1730147633297149696,,,,,,,,,,,,,,0.60945559,-0.34508678,-0.60726583,-0.37510961,-55.72123337,0.00417012,0.00710103,0.00405743,0.00675147,-0.00343790,0.00680489,-0.01175548,-9.72161674,-0.33976328,-0.49459606,0.04968548,0.00207669,-0.25706849,9.77130222,0.34183997,0.23752758,-0.30650711,0.00300439
S,-0.5,1730147633297947136,,-0.99337405,-0.03647049,-0.04932361,0.00013808,0.00414751,-0.00711688,-0.00099395,-0.00003696,-0.00004950,0.00000036,0.00000449,-0.00000595,,,,,,,,,,,,,,,,,,,,,,,
S,-0.5,1730147633298940928,,-0.99343246,-0.03837233,-0.04767714,0.00047824,0.00029308,-0.00903064,-0.00099368,-0.00003768,-0.00004754,0.00000073,-0.00000025,-0.00000924,,,,,,,,,,,,,,,,,,,,,,,
S,-0.5,1730147633299143680,,,,,,,,,,,,,,0.60945523,-0.34507874,-0.60726535,-0.37511837,-55.72123337,0.00417012,0.00710103,0.00405743,0.00675147,0.00200196,0.00546305,-0.00863599,-9.72979450,-0.37279773,-0.49870047,0.04149818,-0.03075898,-0.26105285,9.77129269,0.34203875,0.23764764,-0.30650711,0.00300439
S,-0.5,1730147633299933952,,-0.99241936,-0.04113549,-0.04558275,0.00149965,-0.00048897,-0.00675690,-0.00099262,-0.00004124,-0.00004544,0.00000142,-0.00000157,-0.00000778,,,,,,,,,,,,,,,,,,,,,,,
S,-0.5,1730147633300926208,,-0.99356174,-0.04211112,-0.04284798,0.00090441,-0.00123314,-0.00815560,-0.00099303,-0.00004281,-0.00004268,0.00000134,-0.00000135,-0.00000718,,,,,,,,,,,,,,,,,,,,,,,
S,-0.5,1730147633301140480,,,,,,,,,,,,,,0.60945290,-0.34507051,-0.60726893,-0.37512395,-55.72123337,0.00417012,0.00710103,0.00405743,0.00675147,0.00232690,-0.00262790,-0.01233453,-9.74464703,-0.36953172,-0.46618238,0.02663803,-0.02728692,-0.22850838,9.77128506,0.34224480,0.23767400,-0.30650711,0.00300439
S,-0.5,1730147633301922560,,-0.99615097,-0.04090367,-0.04067501,0.00031466,-0.00587769,-0.00431055,-0.00099604,-0.00004143,-0.00004020,0.00000023,-0.00000527,-0.00000545,,,,,,,,,,,,,,,,,,,,,,,
S,-0.5,1730147633302918144,,-0.99509621,-0.04001914,-0.04035112,0.00409022,-0.00878724,-0.00625177,-0.00099611,-0.00003980,-0.00003972,0.00000322,-0.00000974,-0.00000468,,,,,,,,,,,,,,,,,,,,,,,
S,-0.5,1730147633303136000,,,,,,,,,,,,,,0.60944766,-0.34506324,-0.60727572,-0.37512815,-55.72123337,0.00417012,0.00710103,0.00405743,0.00675147,0.00293570,-0.00372569,-0.01027056,-9.73831463,-0.41985554,-0.41853029,0.03296375,-0.07738861,-0.18091969,9.77127838,0.34246692,0.23761059,-0.30650711,0.00300439
S,-0.5,1730147633303913216,,-0.99585670,-0.03780256,-0.04090244,0.00193806,-0.00801677,-0.00568749,-0.00099538,-0.00003792,-0.00004070,0.00000353,-0.00000908,-0.00000641,,,,,,,,,,,,,,,,,,,,,,,
S,-0.5,1730147633304907264,,-0.99527103,-0.03773696,-0.04135648,0.00206602,-0.00785253,-0.00506343,-0.00099562,-0.00003704,-0.00004145,0.00000136,-0.00000764,-0.00000500,,,,,,,,,,,,,,,,,,,,,,,
S,-0.5,1730147633305129984,,,,,,,,,,,,,,0.60944080,-0.34505838,-0.60728514,-0.37512857,-55.72123337,0.00417012,0.00710103,0.00405743,0.00675147,0.00481454,-0.01211584,-0.00776800,-9.76852226,-0.39026001,-0.38949963,0.00275421,-0.04761472,-0.15204634,9.77127647,0.34264529,0.23745330,-0.30650711,0.00300439
S,-0.5,1730147633305900544,,-0.99666619,-0.03821924,-0.04106724,0.00254467,-0.01190385,-0.00238937,-0.00099623,-0.00003811,-0.00004126,0.00000250,-0.00001112,-0.00000268,,,,,,,,,,,,,,,,,,,,,,,
S,-0.5,1730147633306893056,,-0.99558300,-0.03807721,-0.03941913,0.00061535,-0.01060860,0.00127366,-0.00099622,-0.00003826,-0.00003963,0.00000112,-0.00001213,0.00000146,,,,,,,,,,,,,,,,,,,,,,,
S,-0.5,1730147633307122432,,,,,,,,,,,,,,0.60943246,-0.34505534,-0.60729605,-0.37512723,-55.72123337,0.00417012,0.00710103,0.00405743,0.00675147,0.00295573,-0.01001595,-0.00809004,-9.76369190,-0.36326963,-0.40648180,0.00758457,-0.02046782,-0.16924714,9.77127647,0.34280181,0.23723467,-0.30650711,0.00300439
S,-0.5,1730147633307889408,,-0.99563718,-0.03764672,-0.03569182,0.00243077,-0.00788436,0.00098830,-0.00099528,-0.00003768,-0.00003584,0.00000149,-0.00000797,0.00000221,,,,,,,,,,,,,,,,,,,,,,,
S,-0.5,1730147633308885248,,-0.99485862,-0.03641403,-0.03579686,0.00180930,-0.01086895,-0.00361704,-0.00099502,-0.00003650,-0.00003459,0.00000250,-0.00000946,-0.00000287,,,,,,,,,,,,,,,,,,,,,,,
S,-0.5,1730147633309118208,,,,,,,,,,,,,,0.60942417,-0.34505525,-0.60730624,-0.37512425,-55.72123337,0.00417012,0.00710103,0.00405743,0.00675147,0.00271627,-0.01451234,-0.00163354,-9.76961899,-0.37516496,-0.38860250,0.00165939,-0.03226668,-0.15160909,9.77127838,0.34289828,0.23699340,-0.30650711,0.00300439
S,-0.5,1730147633309880320,,-0.99272031,-0.03714325,-0.03421294,-0.00011878,-0.01609868,-0.00868093,-0.00099286,-0.00003662,-0.00003453,0.00000003,-0.00001610,-0.00000923,,,,,,,,,,,,,,,,,,,,,,,
S,-0.5,1730147633310874368,,-0.99362844,-0.03752934,-0.03057422,0.00047942,-0.01431824,-0.00403587,-0.00099278,-0.00003769,-0.00003073,-0.00000024,-0.00001631,-0.00000649,,,,,,,,,,,,,,,,,,,,,,,
S,-0.5,1730147633311112192,,,,,,,,,,,,,,0.60941595,-0.34505582,-0.60731685,-0.37511995,-55.72123337,0.00417012,0.00710103,0.00405743,0.00675147,0.00409810,-0.01183835,-0.00596397,-9.75778675,-0.35795641,-0.33922383,0.01349545,-0.01498264,-0.10248950,9.77128220,0.34297377,0.23673433,-0.30650711,0.00300439
S,-0.5,1730147633311867392,,-0.99357623,-0.03831359,-0.02839093,0.00186843,-0.01499186,-0.00557860,-0.00099387,-0.00003829,-0.00002763,0.00000181,-0.00001430,-0.00000382,,,,,,,,,,,,,,,,,,,,,,,
S,-0.5,1730147633312859904,,-0.99359620,-0.03803604,-0.02648665,-0.00040391,-0.01163630,-0.00485519,-0.00099358,-0.00003834,-0.00002614,0.00000045,-0.00001246,-0.00000548,,,,,,,,,,,,,,,,,,,,,,,
S,-0.5,1730147633313109248,,,,,,,,,,,,,,0.60940468,-0.34505516,-0.60732985,-0.37511778,-55.72123337,0.00417012,0.00710103,0.00405743,0.00675147,0.00135502,-0.01868523,-0.00958456,-9.73587227,-0.36962324,-0.30136958,0.03541183,-0.02649614,-0.06493574,9.77128410,0.34312710,0.23643383,-0.30650711,0.00300439
S,-0.5,1730147633313856768,,-0.99437183,-0.03757368,-0.02455890,-0.00114441,-0.01040021,-0.00963108,-0.00099424,-0.00003757,-0.00002430,-0.00000173,-0.00000956,-0.00000853,,,,,,,,,,,,,,,,,,,,,,,
S,-0.5,1730147633314852864,,-0.99443769,-0.03590805,-0.02152554,0.00128713,-0.01074427,-0.00692987,-0.00099467,-0.00003606,-0.00002146,0.00000061,-0.00001029,-0.00000894,,,,,,,,,,,,,,,,,,,,,,,
S,-0.5,1730147633315105280,,,,,,,,,,,,,,0.60939169,-0.34505489,-0.60734385,-0.37511650,-55.72123337,0.00417012,0.00710103,0.00405743,0.00675147,0.00204911,-0.01483921,-0.00857054,-9.74365139,-0.37595013,-0.25632462,0.02763462,-0.03264436,-0.02021936,9.77128601,0.34330577,0.23610526,-0.30650711,0.00300439
S,-0.5,1730147633315849472,,-0.99721843,-0.03738672,-0.02180353,0.00141812,-0.01488360,-0.00263070,-0.00099673,-0.00003659,-0.00002079,0.00000217,-0.00001424,-0.00000255,,,,,,,,,,,,,,,,,,,,,,,
S,-0.5,1730147633316845056,,-0.99721140,-0.03433170,-0.02200367,0.00416694,-0.01440755,-0.00731712,-0.00099810,-0.00003536,-0.00002206,0.00000371,-0.00001581,-0.00000510,,,,,,,,,,,,,,,,,,,,,,,
S,-0.5,1730147633317100800,,,,,,,,,,,,,,0.60938019,-0.34505251,-0.60735661,-0.37511674,-55.72123337,0.00417012,0.00710103,0.00405743,0.00675147,0.00220766,-0.01266713,-0.01203370,-9.75440598,-0.35366249,-0.21047994,0.01687908,-0.01015443,0.02535458,9.77128506,0.34350806,0.23583452,-0.30650711,0.00300439
S,-0.5,1730147633317839872,,-0.99722576,-0.03536501,-0.02301989,-0.00009234,-0.00839094,-0.00527535,-0.00099722,-0.00003420,-0.00002290,0.00000156,-0.00000933,-0.00000714,,,,,,,,,,,,,,,,,,,,,,,
S,-0.5,1730147633318833664,,-0.99640805,-0.03471463,-0.02124081,0.00148852,-0.00491724,-0.00693032,-0.00099656,-0.00003516,-0.00002189,-0.00000015,-0.00000363,-0.00000598,,,,,,,,,,,,,,,,,,,,,,,
