state,extension,timestamp,invalid_fields,scaledAccelX,scaledAccelY,scaledAccelZ,scaledGyroX,scaledGyroY,scaledGyroZ,deltaVelX,deltaVelY,deltaVelZ,deltaThetaX,deltaThetaY,deltaThetaZ,estOrientQuaternionW,estOrientQuaternionX,estOrientQuaternionY,estOrientQuaternionZ,estPressureAlt,estAttitudeUncertQuaternionW,estAttitudeUncertQuaternionX,estAttitudeUncertQuaternionY,estAttitudeUncertQuaternionZ,estAngularRateX,estAngularRateY,estAngularRateZ,estCompensatedAccelX,estCompensatedAccelY,estCompensatedAccelZ,estLinearAccelX,estLinearAccelY,estLinearAccelZ,estGravityVectorX,estGravityVectorY,estGravityVectorZ,current_altitude,speed
S,-0.5,1730147660435860599,,,,,,,,,,,,,,0.37394884,-0.59505951,0.41231674,0.57970804,-55.48870850,0.00755555,0.00524449,0.00789713,0.00509441,0.01130442,0.03010686,-0.00705900,9.72401142,-0.35401779,0.33514598,-0.03945160,-0.03124270,-0.13627461,-9.76346302,0.32277510,-0.47142059,0.00000000,0.00000000
S,-0.5,1730147660436724498,,0.99283612,-0.03946202,0.03641900,0.00536354,0.03680181,-0.00029719,0.00099273,-0.00003876,0.00003675,0.00000335,0.00003732,0.00000076,,,,,,,,,,,,,,,,,,,,,,,
S,-0.5,1730147660437723648,,0.99228966,-0.04044139,0.03629276,0.00287682,0.03564964,-0.00393389,0.00099254,-0.00004142,0.00003598,0.00000385,0.00003617,-0.00000265,,,,,,,,,,,,,,,,,,,,,,,
S,-0.5,1730147660437859840,,,,,,,,,,,,,,0.37394506,-0.59507751,0.41232952,0.57968295,-55.48870850,0.00755555,0.00524449,0.00789713,0.00509441,0.00623588,0.03333237,-0.00697165,9.73719597,-0.35009688,0.37419266,-0.02624130,-0.02746695,-0.09785238,-9.76343727,0.32262993,-0.47204503,0.00000000,0.00000000
S,-0.5,1730147660438722048,,0.99052578,-0.04002295,0.03368726,0.00323889,0.03805313,-0.00371148,0.00099067,-0.00004041,0.00003412,0.00000238,0.00003725,-0.00000491,,,,,,,,,,,,,,,,,,,,,,,
S,-0.5,1730147660439719680,,0.99095702,-0.04004239,0.03223472,0.00029732,0.04113759,-0.00410039,0.00099032,-0.00003991,0.00003167,0.00000095,0.00004134,-0.00000396,,,,,,,,,,,,,,,,,,,,,,,
S,-0.5,1730147660439857408,,,,,,,,,,,,,,0.37393838,-0.59509742,0.41234168,0.57965821,-55.48870850,0.00755555,0.00524449,0.00789713,0.00509441,0.00546891,0.03378137,-0.00576747,9.73349571,-0.40616724,0.35282680,-0.02991486,-0.08366671,-0.11987683,-9.76341057,0.32250053,-0.47270364,0.00000000,0.00000000
S,-0.5,1730147660440716544,,0.99335456,-0.03900509,0.03325261,0.00146800,0.04359445,-0.00563784,0.00099306,-0.00003920,0.00003261,0.00000032,0.00004413,-0.00000548,,,,,,,,,,,,,,,,,,,,,,,
S,-0.5,1730147660441712640,,0.99379063,-0.04026960,0.03371987,0.00200396,0.03960527,-0.00584578,0.00099447,-0.00003971,0.00003396,0.00000228,0.00004111,-0.00000630,,,,,,,,,,,,,,,,,,,,,,,
S,-0.5,1730147660441853440,,,,,,,,,,,,,,0.37392947,-0.59511960,0.41235372,0.57963246,-55.48870850,0.00755555,0.00524449,0.00789713,0.00509441,0.00256368,0.03895555,-0.00707772,9.71169567,-0.39134169,0.31057271,-0.05168343,-0.06897086,-0.16284519,-9.76337910,0.32237083,-0.47341791,0.00000000,0.00000000
S,-0.5,1730147660442708224,,0.99531186,-0.04258609,0.03540323,0.00070711,0.03824165,-0.00160187,0.00099517,-0.00004257,0.00003525,0.00000111,0.00003722,-0.00000244,,,,,,,,,,,,,,,,,,,,,,,
S,-0.5,1730147660443702784,,0.99417448,-0.04259682,0.03490587,-0.00137799,0.03973037,-0.00173537,0.00099487,-0.00004333,0.00003553,-0.00000141,0.00003903,-0.00000036,,,,,,,,,,,,,,,,,,,,,,,
S,-0.5,1730147660443847936,,,,,,,,,,,,,,0.37392014,-0.59514433,0.41236520,0.57960492,-55.48870850,0.00755555,0.00524449,0.00789713,0.00509441,0.00389586,0.03872544,-0.00941618,9.75246429,-0.38941813,0.33302146,-0.01088333,-0.06721169,-0.14115730,-9.76334763,0.32220644,-0.47417876,0.00000000,0.00000000
S,-0.5,1730147660444696576,,0.99460781,-0.03894374,0.03324622,0.00070061,0.03888585,-0.00318378,0.00099417,-0.00003961,0.00003339,-0.00000034,0.00003951,-0.00000296,,,,,,,,,,,,,,,,,,,,,,,
S,-0.5,1730147660445689600,,0.99519604,-0.03703860,0.03522692,0.00388408,0.04235884,-0.00463560,0.00099523,-0.00003622,0.00003434,0.00000397,0.00004146,-0.00000483,,,,,,,,,,,,,,,,,,,,,,,
S,-0.5,1730147660445840896,,,,,,,,,,,,,,0.37390956,-0.59516805,0.41237664,0.57957923,-55.48870850,0.00755555,0.00524449,0.00789713,0.00509441,0.00020470,0.03663916,-0.00347902,9.75629520,-0.42494580,0.34845191,-0.00702000,-0.10286704,-0.12646407,-9.76331520,0.32207876,-0.47491598,0.00000000,0.00000000
S,-0.5,1730147660446681600,,0.99428266,-0.03736605,0.03745598,0.00036746,0.04149218,-0.00658336,0.00099464,-0.00003670,0.00003768,0.00000202,0.00004276,-0.00000669,,,,,,,,,,,,,,,,,,,,,,,
S,-0.5,1730147660447672832,,0.99483562,-0.03474049,0.03687648,0.00013980,0.04372633,-0.00472605,0.00099444,-0.00003532,0.00003769,-0.00000094,0.00004304,-0.00000568,,,,,,,,,,,,,,,,,,,,,,,
S,-0.5,1730147660447835136,,,,,,,,,,,,,,0.37389901,-0.59519130,0.41238910,0.57955343,-55.48870850,0.00755555,0.00524449,0.00789713,0.00509441,0.00558395,0.03907233,-0.00795167,9.75984383,-0.35521412,0.33674985,-0.00344086,-0.03324962,-0.13890564,-9.76328468,0.32196450,-0.47565550,0.00000000,0.00000000
S,-0.5,1730147660448666368,,0.99709630,-0.03369028,0.03460084,-0.00180353,0.04187997,-0.00433568,0.00099686,-0.00003305,0.00003483,-0.00000152,0.00004293,-0.00000382,,,,,,,,,,,,,,,,,,,,,,,
S,-0.5,1730147660449658880,,0.99709576,-0.03374947,0.03890431,0.00091034,0.04037432,-0.00598644,0.00099782,-0.00003340,0.00003740,-0.00000020,0.00004006,-0.00000556,,,,,,,,,,,,,,,,,,,,,,,
S,-0.5,1730147660449827840,,,,,,,,,,,,,,0.37388930,-0.59521669,0.41240084,0.57952529,-55.48870850,0.00755555,0.00524449,0.00789713,0.00509441,0.00067844,0.04065786,-0.00880228,9.75216866,-0.34638903,0.36962557,-0.01108360,-0.02459094,-0.10680985,-9.76325226,0.32179809,-0.47643542,0.00000000,0.00000000
S,-0.5,1730147660450651136,,0.99830723,-0.03451379,0.03950930,0.00125277,0.03578175,-0.00696746,0.00099809,-0.00003439,0.00004077,0.00000205,0.00003614,-0.00000731,,,,,,,,,,,,,,,,,,,,,,,
S,-0.5,1730147660451642368,,0.99865514,-0.03293398,0.04090793,0.00261372,0.03666784,-0.00783182,0.00099898,-0.00003346,0.00004085,0.00000248,0.00003504,-0.00000799,,,,,,,,,,,,,,,,,,,,,,,
S,-0.5,1730147660451818752,,,,,,,,,,,,,,0.37387884,-0.59524262,0.41241089,0.57949829,-55.48870850,0.00755555,0.00524449,0.00789713,0.00509441,0.00141531,0.03767349,-0.00868106,9.78522682,-0.32758412,0.36674729,0.02200508,-0.00595772,-0.11045328,-9.76322174,0.32162639,-0.47720057,0.00000000,0.00000000
S,-0.5,1730147660452632832,,0.99738955,-0.03318482,0.03998597,0.00033801,0.03991626,-0.00994676,0.00099773,-0.00003264,0.00004060,0.00000118,0.00003961,-0.00000984,,,,,,,,,,,,,,,,,,,,,,,
S,-0.5,1730147660453622272,,0.99745774,-0.03474649,0.04051401,-0.00197884,0.04238251,-0.00913026,0.00099704,-0.00003454,0.00004012,-0.00000228,0.00004297,-0.00000995,,,,,,,,,,,,,,,,,,,,,,,
S,-0.5,1730147660453808384,,,,,,,,,,,,,,0.37387168,-0.59526598,0.41241968,0.57947248,-55.48870850,0.00755555,0.00524449,0.00789713,0.00509441,0.00409208,0.03265831,-0.01110583,9.79662228,-0.32817224,0.40056539,0.03343010,-0.00674200,-0.07732490,-9.76319218,0.32143024,-0.47789028,0.00000000,0.00000000
S,-0.5,1730147660454615552,,0.99946433,-0.03548083,0.04104701,-0.00060143,0.04211356,-0.00588621,0.00099912,-0.00003584,0.00004112,-0.00000159,0.00004295,-0.00000622,,,,,,,,,,,,,,,,,,,,,,,
S,-0.5,1730147660455609600,,1.00257587,-0.03579476,0.04240458,0.00131407,0.04440722,-0.00755453,0.00100265,-0.00003597,0.00004233,0.00000140,0.00004390,-0.00000622,,,,,,,,,,,,,,,,,,,,,,,
S,-0.5,1730147660455802624,,,,,,,,,,,,,,0.37386459,-0.59529155,0.41242716,0.57944548,-55.48870850,0.00755555,0.00524449,0.00789713,0.00509441,-0.00066562,0.04058175,-0.01307060,9.77764797,-0.33874711,0.39349061,0.01448345,-0.01755443,-0.08511549,-9.76316452,0.32119268,-0.47860610,0.00000000,0.00000000
S,-0.5,1730147660456602880,,1.00137091,-0.03708823,0.04200193,-0.00316579,0.04134452,-0.01008256,0.00100258,-0.00003695,0.00004251,-0.00000174,0.00004263,-0.00001015,,,,,,,,,,,,,,,,,,,,,,,
S,-0.5,1730147660457595392,,1.00104296,-0.03539328,0.04290732,-0.00560896,0.04042079,-0.01220445,0.00100072,-0.00003611,0.00004261,-0.00000659,0.00003961,-0.00001262,,,,,,,,,,,,,,,,,,,,,,,
S,-0.5,1730147660457795328,,,,,,,,,,,,,,0.37385485,-0.59531951,0.41243652,0.57941639,-55.48870850,0.00755555,0.00524449,0.00789713,0.00509441,0.00302114,0.04151820,-0.00933761,9.83262920,-0.35275957,0.41509256,0.06949615,-0.03178635,-0.06431541,-9.76313305,0.32097322,-0.47940797,0.00000000,0.00000000
S,-0.5,1730147660458587392,,1.00250018,-0.03436911,0.04161680,-0.00497538,0.04268780,-0.01457225,0.00100213,-0.00003402,0.00004214,-0.00000587,0.00004198,-0.00001482,,,,,,,,,,,,,,,,,,,,,,,
S,-0.5,1730147660459578368,,1.00191772,-0.03511055,0.04197235,-0.00574736,0.03952628,-0.01656552,0.00100249,-0.00003465,0.00004150,-0.00000541,0.00004082,-0.00001696,,,,,,,,,,,,,,,,,,,,,,,
S,-0.5,1730147660459786240,,,,,,,,,,,,,,0.37384528,-0.59534788,0.41244319,0.57938868,-55.48870850,0.00755555,0.00524449,0.00789713,0.00509441,-0.00497441,0.03722706,-0.01574240,9.81370258,-0.35414526,0.41790438,0.05059910,-0.03341600,-0.06227174,-9.76310349,0.32072926,-0.48017612,0.00000000,0.00000000
S,-0.5,1730147660460578048,,1.00149345,-0.03683933,0.04092835,-0.00357984,0.04143134,-0.01855854,0.00100139,-0.00003676,0.00004123,-0.00000422,0.00004008,-0.00001883,,,,,,,,,,,,,,,,,,,,,,,
S,-0.5,1730147660461576960,,1.00175452,-0.03521111,0.04108102,-0.00393390,0.03974728,-0.01705574,0.00100157,-0.00003606,0.00004072,-0.00000318,0.00004066,-0.00001796,,,,,,,,,,,,,,,,,,,,,,,
S,-0.5,1730147660461784832,,,,,,,,,,,,,,0.37383744,-0.59537882,0.41244414,0.57936126,-55.48870850,0.00755555,0.00524449,0.00789713,0.00509441,-0.00378879,0.03843564,-0.02007585,9.83104324,-0.33979705,0.40694526,0.06796455,-0.01941320,-0.07396692,-9.76307869,0.32038385,-0.48091218,0.00000000,0.00000000
S,-0.5,1730147660462575104,,1.00131381,-0.03563735,0.04186646,-0.00318190,0.03813424,-0.01623169,0.00100148,-0.00003504,0.00004177,-0.00000343,0.00003789,-0.00001590,,,,,,,,,,,,,,,,,,,,,,,
S,-0.5,1730147660463572224,,1.00023377,-0.03617678,0.04140408,-0.00750488,0.04224304,-0.01996358,0.00100029,-0.00003621,0.00004174,-0.00000648,0.00004098,-0.00001902,,,,,,,,,,,,,,,,,,,,,,,
S,-0.5,1730147660463782144,,,,,,,,,,,,,,0.37383196,-0.59541053,0.41244468,0.57933182,-55.48870850,0.00755555,0.00524449,0.00789713,0.00509441,-0.00156298,0.03827298,-0.02108198,9.82206535,-0.35360134,0.39933679,0.05901051,-0.03361708,-0.08232296,-9.76305485,0.31998426,-0.48165974,0.00000000,0.00000000
S,-0.5,1730147660464568576,,0.99945956,-0.03637582,0.04403173,-0.01210357,0.04315238,-0.02173628,0.00099926,-0.00003651,0.00004341,-0.00001264,0.00004430,-0.00002260,,,,,,,,,,,,,,,,,,,,,,,
S,-0.5,1730147660465563904,,0.99707061,-0.03635576,0.04580363,-0.01714077,0.04506170,-0.01988723,0.00099726,-0.00003642,0.00004632,-0.00001769,0.00004500,-0.00002079,,,,,,,,,,,,,,,,,,,,,,,
S,-0.5,1730147660465778176,,,,,,,,,,,,,,0.37382674,-0.59544295,0.41244435,0.57930225,-55.48870850,0.00755555,0.00524449,0.00789713,0.00509441,-0.00486343,0.03859640,-0.02214201,9.80949116,-0.35513997,0.40931350,0.04645824,-0.03557429,-0.07309252,-9.76303291,0.31956568,-0.48240602,0.00000000,0.00000000
S,-0.5,1730147660466558976,,0.99783075,-0.03706379,0.04657011,-0.01593802,0.04266250,-0.02432043,0.00099693,-0.00003693,0.00004699,-0.00001776,0.00004371,-0.00002293,,,,,,,,,,,,,,,,,,,,,,,
S,-0.5,1730147660467553280,,0.99978215,-0.03717483,0.04682564,-0.01547234,0.04786346,-0.02357975,0.00099967,-0.00003738,0.00004702,-0.00001517,0.00004615,-0.00002513,,,,,,,,,,,,,,,,,,,,,,,
S,-0.5,1730147660467772416,,,,,,,,,,,,,,0.37381709,-0.59547991,0.41243976,0.57927376,-55.48870850,0.00755555,0.00524449,0.00789713,0.00509441,-0.01607272,0.04261758,-0.02390623,9.77976322,-0.35718685,0.45422590,0.01675415,-0.03806069,-0.02896696,-9.76300907,0.31912616,-0.48319286,0.00000000,0.00000000
S,-0.5,1730147660468546816,,0.99964714,-0.03454002,0.04745062,-0.01687245,0.05072070,-0.02785106,0.00100029,-0.00003505,0.00004742,-0.00001647,0.00005186,-0.00002684,,,,,,,,,,,,,,,,,,,,,,,
S,-0.5,1730147660469539584,,0.99658805,-0.03420991,0.04849942,-0.01835663,0.04857586,-0.02764491,0.00099710,-0.00003343,0.00004851,-0.00001853,0.00004988,-0.00002904,,,,,,,,,,,,,,,,,,,,,,,
S,-0.5,1730147660469764864,,,,,,,,,,,,,,0.37380555,-0.59552121,0.41243181,0.57924438,-55.48870850,0.00755555,0.00524449,0.00789713,0.00509441,-0.01355746,0.04376812,-0.02824426,9.80340958,-0.36657095,0.46114200,0.04042625,-0.04793972,-0.02288541,-9.76298332,0.31863123,-0.48402742,0.00000000,0.00000000
S,-0.5,1730147660470531328,,0.99733114,-0.03501424,0.04883050,-0.02199102,0.03947622,-0.02807557,0.00099622,-0.00003476,0.00004910,-0.00002180,0.00004045,-0.00002793,,,,,,,,,,,,,,,,,,,,,,,
S,-0.5,1730147660471522304,,0.99735647,-0.03407389,0.04636600,-0.02123426,0.04056280,-0.03059790,0.00099759,-0.00003450,0.00004692,-0.00002253,0.00003747,-0.00003028,,,,,,,,,,,,,,,,,,,,,,,
S,-0.5,1730147660471755776,,,,,,,,,,,,,,0.37379515,-0.59556580,0.41242206,0.57921219,-55.48870850,0.00755555,0.00524449,0.00789713,0.00509441,-0.01691601,0.04748837,-0.03216075,9.77821922,-0.32784623,0.47569740,0.01526165,-0.00978976,-0.00921148,-9.76295757,0.31805646,-0.48490888,0.00000000,0.00000000
S,-0.5,1730147660472516096,,0.99751633,-0.03116428,0.04552001,-0.01576906,0.04149007,-0.03036516,0.00099750,-0.00003139,0.00004489,-0.00001652,0.00004167,-0.00003121,,,,,,,,,,,,,,,,,,,,,,,
S,-0.5,1730147660473514496,,0.99935710,-0.03115973,0.04433873,-0.01931008,0.04600276,-0.03448735,0.00099907,-0.00003023,0.00004428,-0.00001693,0.00004548,-0.00003366,,,,,,,,,,,,,,,,,,,,,,,
S,-0.5,1730147660473754112,,,,,,,,,,,,,,0.37378585,-0.59561032,0.41240701,0.57918316,-55.43586349,0.00755555,0.00524449,0.00789713,0.00509441,-0.02091199,0.03508219,-0.03339548,9.78299999,-0.33833516,0.46011728,0.02006149,-0.02090070,-0.02558526,-9.76293850,0.31743446,-0.48570254,0.05284500,0.00000000
S,-0.5,1730147660474512128,,0.99684620,-0.03076394,0.04724663,-0.02062800,0.04657955,-0.03519864,0.00099789,-0.00003083,0.00004634,-0.00002152,0.00004791,-0.00003638,,,,,,,,,,,,,,,,,,,,,,,
S,-0.5,1730147660475509248,,0.99614656,-0.02938331,0.04800606,-0.02171448,0.04481127,-0.03800734,0.00099547,-0.00002951,0.00004879,-0.00002194,0.00004532,-0.00003772,,,,,,,,,,,,,,,,,,,,,,,
S,-0.5,1730147660475750912,,,,,,,,,,,,,,0.37377924,-0.59565413,0.41239017,0.57915419,-55.43586349,0.00755555,0.00524449,0.00789713,0.00509441,-0.01531044,0.04309133,-0.03678311,9.79756451,-0.29649618,0.43428141,0.03464222,0.02027053,-0.05217424,-9.76292229,0.31676671,-0.48645565,0.05284500,0.00000000
S,-0.5,1730147660476507136,,0.99576116,-0.03014251,0.04809523,-0.01947861,0.04707461,-0.03559054,0.00099561,-0.00002957,0.00004832,-0.00002023,0.00004610,-0.00003692,,,,,,,,,,,,,,,,,,,,,,,
S,-0.5,1730147660477504256,,0.99678493,-0.02802945,0.04813026,-0.02207189,0.04765617,-0.03872049,0.00099648,-0.00002866,0.00004815,-0.00002089,0.00004827,-0.00003738,,,,,,,,,,,,,,,,,,,,,,,
S,-0.5,1730147660477747712,,,,,,,,,,,,,,0.37377337,-0.59570169,0.41237280,0.57912141,-55.43586349,0.00755555,0.00524449,0.00789713,0.00509441,-0.02031995,0.04292947,-0.04084222,9.76226997,-0.28937516,0.47850066,-0.00063419,0.02665120,-0.00878355,-9.76290417,0.31602636,-0.48728421,0.05284500,0.00000000
S,-0.5,1730147660478500608,,0.99719888,-0.02947994,0.04783064,-0.02247804,0.04783437,-0.04108035,0.00099745,-0.00002854,0.00004790,-0.00002323,0.00004799,-0.00004165,,,,,,,,,,,,,,,,,,,,,,,
S,-0.5,1730147660479495936,,0.99704528,-0.03095057,0.04728702,-0.02329371,0.05017556,-0.04198920,0.00099721,-0.00003114,0.00004729,-0.00002327,0.00004981,-0.00004258,,,,,,,,,,,,,,,,,,,,,,,
S,-0.5,1730147660479742976,,,,,,,,,,,,,,0.37376681,-0.59575158,0.41235366,0.57908791,-55.43586349,0.00755555,0.00524449,0.00789713,0.00509441,-0.01927236,0.04588427,-0.04050131,9.77209377,-0.28100958,0.47221428,0.00920773,0.03424147,-0.01592472,-9.76288605,0.31525105,-0.48813900,0.05284500,0.00000000
S,-0.5,1730147660480490496,,0.99497759,-0.03063895,0.04697778,-0.02572312,0.05239035,-0.04543170,0.00099530,-0.00003116,0.00004686,-0.00002554,0.00005273,-0.00004510,,,,,,,,,,,,,,,,,,,,,,,
S,-0.5,1730147660481484032,,0.99553442,-0.03128940,0.04791430,-0.02654750,0.05067860,-0.04792261,0.00099478,-0.00003107,0.00004765,-0.00002717,0.00005169,-0.00004857,,,,,,,,,,,,,,,,,,,,,,,
S,-0.5,1730147660481736448,,,,,,,,,,,,,,0.37376034,-0.59580404,0.41233355,0.57905245,-55.43586349,0.00755555,0.00524449,0.00789713,0.00509441,-0.02165815,0.04742023,-0.04569403,9.77924061,-0.30542809,0.46376210,0.01637268,0.00900102,-0.02527484,-9.76286793,0.31442910,-0.48903695,0.05284500,0.00000000
S,-0.5,1730147660482476800,,0.99684632,-0.02871882,0.04815698,-0.02308437,0.05151253,-0.05052460,0.00099679,-0.00002939,0.00004841,-0.00002398,0.00005082,-0.00005084,,,,,,,,,,,,,,,,,,,,,,,
S,-0.5,1730147660483469056,,0.99613857,-0.02516438,0.04815411,-0.02861714,0.04718738,-0.05235402,0.00099668,-0.00002499,0.00004823,-0.00002651,0.00004824,-0.00005285,,,,,,,,,,,,,,,,,,,,,,,
S,-0.5,1730147660483728640,,,,,,,,,,,,,,0.37375453,-0.59586096,0.41230893,0.57901520,-55.43586349,0.00755555,0.00524449,0.00789713,0.00509441,-0.02555440,0.04930793,-0.05168461,9.75541115,-0.30470970,0.46724400,-0.00744057,0.00879163,-0.02272180,-9.76285172,0.31350133,-0.48996580,0.05284500,0.00000000
S,-0.5,1730147660484462592,,0.99431109,-0.02431254,0.04841768,-0.02952314,0.04487716,-0.05103127,0.00099442,-0.00002334,0.00004837,-0.00003112,0.00004392,-0.00005185,,,,,,,,,,,,,,,,,,,,,,,
S,-0.5,1730147660485455360,,0.99707955,-0.02272305,0.04883878,-0.02920803,0.04541460,-0.05124713,0.00099599,-0.00002274,0.00004885,-0.00002955,0.00004458,-0.00005079,,,,,,,,,,,,,,,,,,,,,,,
S,-0.5,1730147660485727232,,,,,,,,,,,,,,0.37375104,-0.59592015,0.41227999,0.57897711,-55.43586349,0.00755555,0.00524449,0.00789713,0.00509441,-0.02489291,0.04585200,-0.05596865,9.77413940,-0.24508567,0.47299084,0.01130104,0.06738852,-0.01788867,-9.76283836,0.31247419,-0.49087951,0.05284500,0.00000000
S,-0.5,1730147660486453248,,0.99924386,-0.02229241,0.05001566,-0.03012048,0.05170809,-0.04975835,0.00099973,-0.00002186,0.00004994,-0.00002985,0.00005074,-0.00005010,,,,,,,,,,,,,,,,,,,,,,,
S,-0.5,1730147660487450112,,0.99856794,-0.02399288,0.04872780,-0.02864642,0.05308368,-0.05334624,0.00099938,-0.00002355,0.00004934,-0.00002920,0.00005484,-0.00005222,,,,,,,,,,,,,,,,,,,,,,,
S,-0.5,1730147660487724032,,,,,,,,,,,,,,0.37374899,-0.59597820,0.41224843,0.57894129,-55.43586349,0.00755555,0.00524449,0.00789713,0.00509441,-0.02793702,0.04219491,-0.05390566,9.76737309,-0.22301090,0.47901785,0.00454235,0.08841661,-0.01270303,-9.76283073,0.31142750,-0.49172089,0.05284500,0.00000000
S,-0.5,1730147660488446208,,0.99965024,-0.02122670,0.05088425,-0.02944107,0.05306698,-0.05237587,0.00099924,-0.00002227,0.00005008,-0.00002883,0.00005351,-0.00005369,,,,,,,,,,,,,,,,,,,,,,,
S,-0.5,1730147660489441536,,0.99910587,-0.02216357,0.05112188,-0.02588353,0.05469316,-0.05077795,0.00099955,-0.00002111,0.00005177,-0.00002678,0.00005439,-0.00005076,,,,,,,,,,,,,,,,,,,,,,,
S,-0.5,1730147660489719040,,,,,,,,,,,,,,0.37374455,-0.59603852,0.41221750,0.57890409,-55.43586349,0.00755555,0.00524449,0.00789713,0.00509441,-0.02758803,0.05245034,-0.05533927,9.80056572,-0.23091392,0.48382828,0.03774738,0.07947420,-0.00879991,-9.76281834,0.31038812,-0.49262819,0.05284500,0.00000000
S,-0.5,1730147660490436096,,1.00001764,-0.02256548,0.05135173,-0.02586482,0.05247818,-0.05342636,0.00099968,-0.00002279,0.00005139,-0.00002474,0.00005340,-0.00005244,,,,,,,,,,,,,,,,,,,,,,,
S,-0.5,1730147660491429632,,1.00272882,-0.02265256,0.05274184,-0.02594023,0.05426386,-0.05175561,0.00100253,-0.00002276,0.00005256,-0.00002592,0.00005323,-0.00005290,,,,,,,,,,,,,,,,,,,,,,,
S,-0.5,1730147660491712768,,,,,,,,,,,,,,0.37373891,-0.59610111,0.41218919,0.57886344,-55.43586349,0.00755555,0.00524449,0.00789713,0.00509441,-0.02516619,0.05200571,-0.05387821,9.80222988,-0.20704858,0.50764322,0.03942966,0.10229959,0.01401213,-9.76280022,0.30934817,-0.49363109,0.05284500,0.00000000
S,-0.5,1730147660492422400,,1.00302804,-0.02476768,0.05190267,-0.02463996,0.05562640,-0.04922956,0.00100384,-0.00002441,0.00005250,-0.00002490,0.00005595,-0.00004916,,,,,,,,,,,,,,,,,,,,,,,
S,-0.5,1730147660493414656,,1.00069296,-0.02016026,0.05040746,-0.02720768,0.05577521,-0.04889536,0.00100121,-0.00002167,0.00005041,-0.00002633,0.00005618,-0.00004815,,,,,,,,,,,,,,,,,,,,,,,
S,-0.5,1730147660493705216,,,,,,,,,,,,,,0.37373477,-0.59616280,0.41216132,0.57882243,-55.43586349,0.00755555,0.00524449,0.00789713,0.00509441,-0.02430393,0.05084769,-0.05602096,9.83142662,-0.22324494,0.51546115,0.06864262,0.08505422,0.02084088,-9.76278400,0.30829915,-0.49462026,0.05284500,0.00000000
S,-0.5,1730147660494406912,,0.99770498,-0.01675382,0.05033371,-0.02422450,0.05752381,-0.05162130,0.00099750,-0.00001591,0.00004987,-0.00002558,0.00005725,-0.00005102,,,,,,,,,,,,,,,,,,,,,,,
S,-0.5,1730147660495398144,,0.99718904,-0.01476012,0.04982594,-0.02331514,0.05156657,-0.05188762,0.00099633,-0.00001404,0.00004989,-0.00002253,0.00005321,-0.00005271,,,,,,,,,,,,,,,,,,,,,,,
S,-0.5,1730147660495696384,,,,,,,,,,,,,,0.37372965,-0.59622437,0.41213471,0.57878131,-55.43586349,0.00755555,0.00524449,0.00789713,0.00509441,-0.02471061,0.05379521,-0.05127081,9.81854057,-0.21251726,0.49437311,0.05577564,0.09475884,-0.00125337,-9.76276493,0.30727610,-0.49562648,0.05284500,0.00000000
S,-0.5,1730147660496391680,,0.99886787,-0.01503857,0.04910090,-0.02150575,0.05478614,-0.05213984,0.00099840,-0.00001435,0.00004907,-0.00002155,0.00005230,-0.00005218,,,,,,,,,,,,,,,,,,,,,,,
S,-0.5,1730147660497384448,,0.99903780,-0.01427516,0.04975530,-0.02022139,0.05429323,-0.04963455,0.00099954,-0.00001450,0.00004941,-0.00001988,0.00005541,-0.00005017,,,,,,,,,,,,,,,,,,,,,,,
S,-0.5,1730147660497690624,,,,,,,,,,,,,,0.37372544,-0.59628516,0.41210908,0.57873946,-55.43586349,0.00755555,0.00524449,0.00789713,0.00509441,-0.02091417,0.05081885,-0.05582572,9.77067566,-0.13766474,0.48929682,0.00793171,0.16858828,-0.00733846,-9.76274395,0.30625302,-0.49663529,0.05284500,0.00000000
S,-0.5,1730147660498382592,,1.00056922,-0.01315859,0.05077402,-0.01616954,0.05258607,-0.05038503,0.00100035,-0.00001312,0.00005080,-0.00001650,0.00005274,-0.00004945,,,,,,,,,,,,,,,,,,,,,,,
S,-0.5,1730147660499379968,,0.99869514,-0.01157754,0.05135448,-0.01354394,0.04700201,-0.04996202,0.00099952,-0.00001151,0.00005157,-0.00001273,0.00004747,-0.00005028,,,,,,,,,,,,,,,,,,,,,,,
S,-0.5,1730147660499687680,,,,,,,,,,,,,,0.37372395,-0.59634501,0.41208461,0.57869619,-55.43586349,0.00755555,0.00524449,0.00789713,0.00509441,-0.01826213,0.05302092,-0.05328883,9.80215168,-0.14222257,0.48450604,0.03942585,0.16298465,-0.01313075,-9.76272583,0.30520722,-0.49763680,0.05284500,0.00000000
S,-0.5,1730147660500376576,,1.00037050,-0.01157546,0.05235097,-0.00834431,0.04308135,-0.04785720,0.00099947,-0.00001107,0.00005235,-0.00000845,0.00004202,-0.00004811,,,,,,,,,,,,,,,,,,,,,,,
S,-0.5,1730147660501372160,,0.99905151,-0.01349900,0.05174862,-0.00829828,0.04757643,-0.04668704,0.00099982,-0.00001315,0.00005218,-0.00000665,0.00004551,-0.00004623,,,,,,,,,,,,,,,,,,,,,,,
S,-0.5,1730147660501683456,,,,,,,,,,,,,,0.37372586,-0.59640086,0.41206264,0.57865304,-55.43586349,0.00755555,0.00524449,0.00789713,0.00509441,-0.01111462,0.04508648,-0.05339656,9.80197430,-0.11286765,0.50575691,0.03926468,0.19131270,0.00717109,-9.76270962,0.30418035,-0.49858582,0.05284500,0.00000000
S,-0.5,1730147660502367488,,0.99807870,-0.01613107,0.05050768,-0.00887227,0.04924610,-0.04256159,0.00099784,-0.00001627,0.00005054,-0.00000875,0.00005037,-0.00004294,,,,,,,,,,,,,,,,,,,,,,,
S,-0.5,1730147660503361792,,0.99560428,-0.01644551,0.05055299,-0.00685427,0.04819274,-0.03949966,0.00099574,-0.00001723,0.00005015,-0.00000740,0.00004892,-0.00003874,,,,,,,,,,,,,,,,,,,,,,,
S,-0.5,1730147660503677696,,,,,,,,,,,,,,0.37373263,-0.59645063,0.41204384,0.57861090,-55.43586349,0.00755555,0.00524449,0.00789713,0.00509441,-0.00503488,0.04312505,-0.04934846,9.80492783,-0.12894759,0.51166731,0.04222965,0.17423740,0.01222649,-9.76269817,0.30318499,-0.49944082,0.05284500,0.00000000
S,-0.5,1730147660504355328,,0.99684203,-0.01653957,0.04916946,-0.00826764,0.04149681,-0.03490064,0.00099583,-0.00001662,0.00004943,-0.00000737,0.00004238,-0.00003476,,,,,,,,,,,,,,,,,,,,,,,
S,-0.5,1730147660505348096,,0.99599981,-0.01621565,0.04642033,-0.00572196,0.03785867,-0.03312175,0.00099655,-0.00001630,0.00004648,-0.00000663,0.00003639,-0.00003198,,,,,,,,,,,,,,,,,,,,,,,
S,-0.5,1730147660505670400,,,,,,,,,,,,,,0.37373731,-0.59649736,0.41203025,0.57856935,-55.43586349,0.00755555,0.00524449,0.00789713,0.00509441,-0.00578698,0.04652893,-0.04186161,9.76491451,-0.16893451,0.49180001,0.00223351,0.13336559,-0.00851274,-9.76268101,0.30230010,-0.50031275,0.05284500,0.00000000
S,-0.5,1730147660506340096,,0.99430782,-0.01853227,0.04755531,-0.00087536,0.03582158,-0.03072771,0.00099435,-0.00001801,0.00004647,-0.00000095,0.00003503,-0.00003060,,,,,,,,,,,,,,,,,,,,,,,
S,-0.5,1730147660507331072,,0.99224693,-0.01860869,0.04563912,0.00471894,0.03292624,-0.02842591,0.00099208,-0.00001933,0.00004635,0.00000525,0.00003280,-0.00002808,,,,,,,,,,,,,,,,,,,,,,,
S,-0.5,1730147660507661312,,,,,,,,,,,,,,0.37373975,-0.59653854,0.41201922,0.57853317,-55.43586349,0.00755555,0.00524449,0.00789713,0.00509441,-0.00501774,0.03400163,-0.03509984,9.77278519,-0.15989430,0.45580265,0.01012135,0.14165990,-0.04529324,-9.76266384,0.30155420,-0.50109589,0.05284500,0.00000000
S,-0.5,1730147660508324608,,0.99010748,-0.01970884,0.04630447,0.00352079,0.03316195,-0.02914894,0.00098984,-0.00001953,0.00004557,0.00000552,0.00003220,-0.00002828,,,,,,,,,,,,,,,,,,,,,,,
S,-0.5,1730147660509317632,,0.98922604,-0.02138106,0.04568079,0.00904502,0.03170002,-0.02537178,0.00098871,-0.00002143,0.00004601,0.00000766,0.00003204,-0.00002629,,,,,,,,,,,,,,,,,,,,,,,
S,-0.5,1730147660509654016,,,,,,,,,,,,,,0.37374622,-0.59657049,0.41201201,0.57850116,-55.43586349,0.00755555,0.00524449,0.00789713,0.00509441,0.00686187,0.03041718,-0.03120089,9.72900963,-0.18958595,0.45452237,-0.03364277,0.11131945,-0.04720336,-9.76265240,0.30090541,-0.50172573,0.05284500,0.00000000
S,-0.5,1730147660510310144,,0.98567235,-0.02512288,0.04580724,0.01717073,0.02987239,-0.02228927,0.00098604,-0.00002498,0.00004559,0.00001745,0.00002974,-0.00002165,,,,,,,,,,,,,,,,,,,,,,,
S,-0.5,1730147660511307008,,0.98460877,-0.02735601,0.04547305,0.02684492,0.01796833,-0.02326139,0.00098367,-0.00002814,0.00004557,0.00002767,0.00001955,-0.00002210,,,,,,,,,,,,,,,,,,,,,,,
S,-0.5,1730147660511651072,,,,,,,,,,,,,,0.37375620,-0.59659731,0.41200984,0.57846862,-55.43586349,0.00755555,0.00524449,0.00789713,0.00509441,0.00927659,0.02965398,-0.02940700,9.69588566,-0.21013276,0.45116365,-0.06675434,0.09017338,-0.05115259,-9.76264000,0.30030614,-0.50231624,0.05284500,0.00000000
S,-0.5,1730147660512303616,,0.98479187,-0.02715506,0.04887176,0.02903749,0.02371037,-0.02074773,0.00098442,-0.00002790,0.00004815,0.00003172,0.00001888,-0.00002151,,,,,,,,,,,,,,,,,,,,,,,
S,-0.5,1730147660513299456,,0.98289317,-0.02682405,0.04884052,0.02864831,0.02345608,-0.01879731,0.00098330,-0.00002682,0.00004993,0.00002942,0.00002533,-0.00001835,,,,,,,,,,,,,,,,,,,,,,,
S,-0.5,1730147660513646848,,,,,,,,,,,,,,0.37377387,-0.59661490,0.41201344,0.57843649,-55.26675415,0.00755555,0.00524449,0.00789713,0.00509441,0.02929033,0.01716273,-0.02522241,9.64651489,-0.27597135,0.44692051,-0.11611748,0.02378187,-0.05586433,-9.76263237,0.29975322,-0.50278485,0.22195435,0.00000000
S,-0.5,1730147660514294528,,0.98573476,-0.02545470,0.04749366,0.03208619,0.02350319,-0.01551925,0.00098461,-0.00002560,0.00004773,0.00003134,0.00002341,-0.00001549,,,,,,,,,,,,,,,,,,,,,,,
S,-0.5,1730147660515288576,,0.98478872,-0.02338846,0.04962952,0.03373172,0.02039208,-0.01335720,0.00098587,-0.00002333,0.00004881,0.00003453,0.00002097,-0.00001271,,,,,,,,,,,,,,,,,,,,,,,
S,-0.5,1730147660515641088,,,,,,,,,,,,,,0.37379712,-0.59662485,0.41202447,0.57840335,-55.26675415,0.00755555,0.00524449,0.00789713,0.00509441,0.03103360,0.02294335,-0.02147033,9.64284420,-0.26301926,0.48963192,-0.11978245,0.03624746,-0.01356295,-9.76262665,0.29926673,-0.50319487,0.22195435,0.00000000
S,-0.5,1730147660516282112,,0.98506737,-0.02165457,0.05208533,0.03580396,0.02172831,-0.00876102,0.00098472,-0.00002131,0.00005232,0.00003595,0.00002050,-0.00000891,,,,,,,,,,,,,,,,,,,,,,,
S,-0.5,1730147660517274624,,0.98797226,-0.02176017,0.05385605,0.04041400,0.02211886,-0.00339454,0.00098753,-0.00002119,0.00005432,0.00004024,0.00002247,-0.00000291,,,,,,,,,,,,,,,,,,,,,,,
S,-0.5,1730147660517633536,,,,,,,,,,,,,,0.37381938,-0.59663200,0.41204053,0.57837015,-55.26675415,0.00755555,0.00524449,0.00789713,0.00509441,0.03614370,0.01858565,-0.01582539,9.66803360,-0.22877166,0.47868761,-0.09458351,0.07009724,-0.02493289,-9.76261711,0.29886889,-0.50362051,0.22195435,0.00000000
S,-0.5,1730147660518266368,,0.98990583,-0.02385464,0.05687730,0.04206208,0.02146065,-0.00473227,0.00099048,-0.00002351,0.00005689,0.00004323,0.00002170,-0.00000278,,,,,,,,,,,,,,,,,,,,,,,
S,-0.5,1730147660519257344,,0.99345618,-0.02421702,0.05604630,0.04510825,0.02355023,-0.00419100,0.00099343,-0.00002482,0.00005716,0.00004508,0.00002296,-0.00000472,,,,,,,,,,,,,,,,,,,,,,,
S,-0.5,1730147660519624448,,,,,,,,,,,,,,0.37384099,-0.59663314,0.41206381,0.57833844,-55.26675415,0.00755555,0.00524449,0.00789713,0.00509441,0.04185267,0.02008654,-0.00602536,9.68439293,-0.20779854,0.53265989,-0.07821083,0.09081763,0.02863795,-9.76260376,0.29861617,-0.50402194,0.22195435,0.00000000
S,-0.5,1730147660520251136,,0.99611038,-0.02431497,0.05428230,0.04846115,0.02270424,-0.00855627,0.00099676,-0.00002441,0.00005434,0.00004882,0.00002352,-0.00000759,,,,,,,,,,,,,,,,,,,,,,,
S,-0.5,1730147660521244672,,0.99729788,-0.02532942,0.05361396,0.04471928,0.02400970,-0.00746508,0.00099793,-0.00002518,0.00005317,0.00004647,0.00002350,-0.00000905,,,,,,,,,,,,,,,,,,,,,,,
S,-0.5,1730147660521617664,,,,,,,,,,,,,,0.37386304,-0.59663117,0.41209286,0.57830548,-55.26675415,0.00755555,0.00524449,0.00789713,0.00509441,0.04669603,0.02057439,-0.00783395,9.74218655,-0.24337853,0.56053913,-0.02040100,0.05505781,0.05609399,-9.76258755,0.29843634,-0.50444514,0.22195435,0.00000000
S,-0.5,1730147660522237440,,0.99564147,-0.02642340,0.05119606,0.04361549,0.02838989,-0.00254480,0.00099632,-0.00002655,0.00005142,0.00004262,0.00002801,-0.00000309,,,,,,,,,,,,,,,,,,,,,,,
S,-0.5,1730147660523229184,,0.99670804,-0.02683871,0.05248927,0.04774642,0.03049931,0.00205166,0.00099599,-0.00002711,0.00005148,0.00004664,0.00003151,0.00000278,,,,,,,,,,,,,,,,,,,,,,,
S,-0.5,1730147660523614464,,,,,,,,,,,,,,0.37388852,-0.59662962,0.41212210,0.57826978,-55.26675415,0.00755555,0.00524449,0.00789713,0.00509441,0.04808304,0.02111655,-0.01217163,9.78632164,-0.24689390,0.52145767,0.02374935,0.05129935,0.01657748,-9.76257229,0.29819325,-0.50488019,0.22195435,0.00000000
S,-0.5,1730147660524225280,,0.99586308,-0.02664322,0.05195708,0.05140032,0.03017699,0.00342435,0.00099636,-0.00002681,0.00005247,0.00005205,0.00003091,0.00000464,,,,,,,,,,,,,,,,,,,,,,,
S,-0.5,1730147660525220352,,0.99776691,-0.02910174,0.04923286,0.05471847,0.02908440,0.00028172,0.00099715,-0.00002859,0.00004956,0.00005528,0.00002918,0.00000129,,,,,,,,,,,,,,,,,,,,,,,
S,-0.5,1730147660525609728,,,,,,,,,,,,,,0.37391052,-0.59662873,0.41215563,0.57823259,-55.26675415,0.00755555,0.00524449,0.00789713,0.00509441,0.04826118,0.02912361,-0.00033608,9.76729584,-0.26587740,0.50489497,0.00474548,0.03214476,-0.00050485,-9.76255035,0.29802215,-0.50539982,0.22195435,0.00000000
S,-0.5,1730147660526214912,,0.99868798,-0.02881495,0.04978010,0.05308143,0.03292897,-0.00132901,0.00099913,-0.00002965,0.00004881,0.00005444,0.00003188,-0.00000204,,,,,,,,,,,,,,,,,,,,,,,
S,-0.5,1730147660527208704,,0.99983120,-0.02768306,0.04726151,0.05207853,0.03314050,-0.00326250,0.00099992,-0.00002780,0.00004789,0.00005174,0.00003433,-0.00000342,,,,,,,,,,,,,,,,,,,,,,,
S,-0.5,1730147660527603200,,,,,,,,,,,,,,0.37393099,-0.59662569,0.41219583,0.57819384,-55.26675415,0.00755555,0.00524449,0.00789713,0.00509441,0.05689531,0.02679366,-0.00182917,9.77872181,-0.28039679,0.48600072,0.01619816,0.01755133,-0.01997596,-9.76252365,0.29794812,-0.50597668,0.22195435,0.00000000
S,-0.5,1730147660528201728,,0.99961734,-0.02702347,0.04451319,0.04924034,0.03480750,-0.00098835,0.00100002,-0.00002678,0.00004421,0.00004944,0.00003457,-0.00000202,,,,,,,,,,,,,,,,,,,,,,,
S,-0.5,1730147660529193984,,1.00181353,-0.02742907,0.04394061,0.05102217,0.03353126,-0.00704598,0.00100135,-0.00002715,0.00004317,0.00004979,0.00003429,-0.00000522,,,,,,,,,,,,,,,,,,,,,,,
S,-0.5,1730147660529594880,,,,,,,,,,,,,,0.37395421,-0.59662378,0.41223618,0.57815206,-55.26675415,0.00755555,0.00524449,0.00789713,0.00509441,0.05335630,0.03193916,-0.00654269,9.80583286,-0.27259859,0.46967489,0.04333687,0.02521166,-0.03690726,-9.76249599,0.29781026,-0.50658214,0.22195435,0.00000000
S,-0.5,1730147660530185216,,1.00196302,-0.02830888,0.04529869,0.05245366,0.03716239,-0.00996127,0.00100263,-0.00002828,0.00004487,0.00005276,0.00003610,-0.00001136,,,,,,,,,,,,,,,,,,,,,,,
S,-0.5,1730147660531175680,,1.00308180,-0.02843481,0.04313799,0.05054077,0.03952281,-0.01304187,0.00100293,-0.00002869,0.00004396,0.00005134,0.00004025,-0.00001341,,,,,,,,,,,,,,,,,,,,,,,
S,-0.5,1730147660531584768,,,,,,,,,,,,,,0.37397659,-0.59662569,0.41227397,0.57810861,-55.26675415,0.00755555,0.00524449,0.00789713,0.00509441,0.05141164,0.03190710,-0.00834028,9.81985474,-0.26620296,0.42335111,0.05738735,0.03140908,-0.08388633,-9.76246738,0.29761204,-0.50723743,0.22195435,0.00000000
S,-0.5,1730147660532169472,,1.00388122,-0.03012703,0.04486246,0.04639131,0.03942190,-0.01456324,0.00100409,-0.00002986,0.00004386,0.00004654,0.00004019,-0.00001527,,,,,,,,,,,,,,,,,,,,,,,
S,-0.5,1730147660533162240,,1.00311315,-0.03015413,0.04357138,0.03715680,0.04052252,-0.01904896,0.00100351,-0.00003069,0.00004435,0.00003751,0.00004029,-0.00001872,,,,,,,,,,,,,,,,,,,,,,,
S,-0.5,1730147660533577728,,,,,,,,,,,,,,0.37400052,-0.59663147,0.41230977,0.57806164,-55.26675415,0.00755555,0.00524449,0.00789713,0.00509441,0.05296062,0.03786311,-0.01652889,9.83534527,-0.28137064,0.43113169,0.07290554,0.01594585,-0.07681784,-9.76243973,0.29731649,-0.50794953,0.22195435,0.00000000
S,-0.5,1730147660534154496,,1.00405717,-0.02743738,0.04297039,0.03392596,0.04214173,-0.02502936,0.00100364,-0.00002794,0.00004267,0.00003157,0.00004220,-0.00002537,,,,,,,,,,,,,,,,,,,,,,,
S,-0.5,1730147660535145984,,1.00510490,-0.02591611,0.04478416,0.03498619,0.04383094,-0.02597140,0.00100521,-0.00002533,0.00004426,0.00003377,0.00004404,-0.00002770,,,,,,,,,,,,,,,,,,,,,,,
S,-0.5,1730147660535568896,,,,,,,,,,,,,,0.37402347,-0.59664404,0.41233912,0.57801288,-55.26675415,0.00755555,0.00524449,0.00789713,0.00509441,0.03913044,0.03790378,-0.02183698,9.84104347,-0.30094257,0.43497255,0.07863045,-0.00404724,-0.07374373,-9.76241302,0.29689533,-0.50871629,0.22195435,0.00000000
S,-0.5,1730147660536143104,,1.00338793,-0.02680260,0.04232622,0.03025167,0.04737628,-0.03153634,0.00100403,-0.00002616,0.00004335,0.00003145,0.00004727,-0.00003083,,,,,,,,,,,,,,,,,,,,,,,
S,-0.5,1730147660537139200,,1.00185466,-0.02757454,0.04202822,0.03169514,0.05013965,-0.03777961,0.00100159,-0.00002772,0.00004130,0.00002993,0.00005077,-0.00003842,,,,,,,,,,,,,,,,,,,,,,,
S,-0.5,1730147660537564672,,,,,,,,,,,,,,0.37404451,-0.59666395,0.41235983,0.57796395,-55.26675415,0.00752898,0.00525815,0.00790705,0.00510715,0.03538179,0.04165276,-0.03082265,9.85779095,-0.24837843,0.43407646,0.09540272,0.04796514,-0.07543847,-9.76238823,0.29634356,-0.50951493,0.22195435,0.00000000
S,-0.5,1730147660538134528,,1.00247049,-0.02983576,0.04006052,0.02759956,0.05355886,-0.03970110,0.00100187,-0.00002967,0.00004032,0.00002880,0.00005382,-0.00004134,,,,,,,,,,,,,,,,,,,,,,,
S,-0.5,1730147660539129088,,1.00543678,-0.03399160,0.04059801,0.02524376,0.05979538,-0.03977666,0.00100509,-0.00003396,0.00003987,0.00002437,0.00005975,-0.00004037,,,,,,,,,,,,,,,,,,,,,,,
S,-0.5,1730147660539558656,,,,,,,,,,,,,,0.37406683,-0.59669238,0.41237444,0.57790977,-55.26675415,0.00752898,0.00525815,0.00790705,0.00510715,0.03154245,0.04837944,-0.04153542,9.82220936,-0.27179939,0.40501732,0.05984497,0.02380386,-0.10539597,-9.76236439,0.29560325,-0.51041329,0.22195435,0.00000000
S,-0.5,1730147660540122624,,1.00610197,-0.03874163,0.04049467,0.02126950,0.06598429,-0.04410779,0.00100693,-0.00003920,0.00004069,0.00002124,0.00006685,-0.00004334,,,,,,,,,,,,,,,,,,,,,,,
S,-0.5,1730147660541116416,,1.00225282,-0.03967147,0.03822768,0.01298828,0.06620146,-0.04619470,0.00100316,-0.00004101,0.00003861,0.00001323,0.00006813,-0.00004719,,,,,,,,,,,,,,,,,,,,,,,
S,-0.5,1730147660541552384,,,,,,,,,,,,,,0.37408677,-0.59672970,0.41238546,0.57785046,-55.26675415,0.00752898,0.00525815,0.00790705,0.00510715,0.02598479,0.05736397,-0.04349333,9.85660362,-0.33299851,0.39103496,0.09426880,-0.03825453,-0.12042725,-9.76233482,0.29474398,-0.51146221,0.22195435,0.00000000
S,-0.5,1730147660542109440,,1.00048792,-0.03868801,0.03640518,0.01289788,0.06651906,-0.05133328,0.00099958,-0.00003916,0.00003601,0.00001028,0.00006653,-0.00005106,,,,,,,,,,,,,,,,,,,,,,,
S,-0.5,1730147660543101440,,0.99858069,-0.03866601,0.03720975,0.00987463,0.06658445,-0.05406081,0.00099837,-0.00003836,0.00003648,0.00001040,0.00006667,-0.00005520,,,,,,,,,,,,,,,,,,,,,,,
S,-0.5,1730147660543545088,,,,,,,,,,,,,,0.37410066,-0.59677696,0.41239229,0.57778776,-55.26675415,0.00752898,0.00525815,0.00790705,0.00510715,0.01484448,0.06574535,-0.05031292,9.83767796,-0.40221179,0.37860310,0.07537842,-0.10840461,-0.13407332,-9.76229954,0.29380718,-0.51267642,0.22195435,0.00000000
S,-0.5,1730147660544095488,,0.99817657,-0.03693225,0.03462498,0.00834315,0.07111146,-0.05445405,0.00099764,-0.00003724,0.00003535,0.00000766,0.00007031,-0.00005525,,,,,,,,,,,,,,,,,,,,,,,
S,-0.5,1730147660545088512,,0.99701357,-0.03766366,0.03407348,0.00501609,0.07185090,-0.05859889,0.00099710,-0.00003698,0.00003335,0.00000513,0.00007316,-0.00005797,,,,,,,,,,,,,,,,,,,,,,,
S,-0.5,1730147660545538048,,,,,,,,,,,,,,0.37411323,-0.59683192,0.41239196,0.57772309,-55.26675415,0.00752898,0.00525815,0.00790705,0.00510715,0.01201177,0.06428699,-0.05831970,9.79061985,-0.37614986,0.35778061,0.02835560,-0.08341706,-0.15617344,-9.76226425,0.29273281,-0.51395404,0.22195435,0.00000000
S,-0.5,1730147660546081024,,0.99724627,-0.03891722,0.03339533,0.00590710,0.06596442,-0.06219371,0.00099683,-0.00003892,0.00003334,0.00000469,0.00006727,-0.00006286,,,,,,,,,,,,,,,,,,,,,,,
S,-0.5,1730147660547072512,,0.99890757,-0.03623143,0.03230568,0.00315683,0.07176302,-0.06404726,0.00099868,-0.00003712,0.00003229,0.00000394,0.00006884,-0.00006485,,,,,,,,,,,,,,,,,,,,,,,
S,-0.5,1730147660547529216,,,,,,,,,,,,,,0.37412548,-0.59689206,0.41238701,0.57765657,-55.26675415,0.00752898,0.00525815,0.00790705,0.00510715,0.00674974,0.07077089,-0.06108976,9.77817440,-0.36263701,0.32706308,0.01594448,-0.07107970,-0.18821496,-9.76222992,0.29155731,-0.51527804,0.22195435,0.00000000
S,-0.5,1730147660548063232,,1.00155973,-0.03951553,0.03138466,0.00258219,0.07160747,-0.06771293,0.00100161,-0.00003806,0.00003121,0.00000181,0.00007348,-0.00006764,,,,,,,,,,,,,,,,,,,,,,,
S,-0.5,1730147660549058048,,1.00181663,-0.04068737,0.03341360,-0.00277887,0.07595561,-0.06617756,0.00100261,-0.00004152,0.00003275,-0.00000199,0.00007512,-0.00006762,,,,,,,,,,,,,,,,,,,,,,,
S,-0.5,1730147660549523712,,,,,,,,,,,,,,0.37413815,-0.59695601,0.41237772,0.57758892,-55.26675415,0.00752898,0.00525815,0.00790705,0.00510715,0.00555678,0.06644908,-0.06797354,9.79370308,-0.36400595,0.31663629,0.03150654,-0.07371539,-0.19998512,-9.76219654,0.29029056,-0.51662141,0.22195435,0.00000000
S,-0.5,1730147660550052352,,1.00623560,-0.03933591,0.03383924,-0.00209882,0.07823761,-0.06558416,0.00100551,-0.00003995,0.00003441,-0.00000393,0.00007921,-0.00006520,,,,,,,,,,,,,,,,,,,,,,,
S,-0.5,1730147660551045632,,1.00865364,-0.03977627,0.03274004,-0.00297292,0.07873973,-0.06820550,0.00100962,-0.00003927,0.00003308,-0.00000260,0.00007937,-0.00006754,,,,,,,,,,,,,,,,,,,,,,,
S,-0.5,1730147660551518720,,,,,,,,,,,,,,0.37415102,-0.59702379,0.41236380,0.57752031,-55.26675415,0.00752898,0.00525815,0.00790705,0.00510715,-0.00037108,0.07272943,-0.07074212,9.83228588,-0.40717056,0.32118645,0.07012272,-0.11823708,-0.19679657,-9.76216316,0.28893349,-0.51798302,0.22195435,0.00000000
S,-0.5,1730147660552040192,,1.00568879,-0.03864603,0.03281396,-0.00721191,0.07035226,-0.06590357,0.00100700,-0.00003899,0.00003245,-0.00000672,0.00007204,-0.00006716,,,,,,,,,,,,,,,,,,,,,,,
S,-0.5,1730147660553033984,,1.00643373,-0.03967992,0.03348910,-0.00815937,0.07500799,-0.06457569,0.00100535,-0.00003913,0.00003339,-0.00000934,0.00007149,-0.00006408,,,,,,,,,,,,,,,,,,,,,,,
S,-0.5,1730147660553511936,,,,,,,,,,,,,,0.37416059,-0.59709644,0.41234919,0.57744944,-55.26675415,0.00752898,0.00525815,0.00790705,0.00510715,-0.00098101,0.07698821,-0.07065915,9.90099907,-0.38506693,0.32435727,0.13887215,-0.09751326,-0.19508678,-9.76212692,0.28755367,-0.51944405,0.22195435,0.00000000
S,-0.5,1730147660554027008,,1.00846171,-0.03732067,0.03239604,-0.01046152,0.07547813,-0.06454886,0.00100833,-0.00003808,0.00003281,-0.00001034,0.00007687,-0.00006413,,,,,,,,,,,,,,,,,,,,,,,
S,-0.5,1730147660555019008,,1.00859106,-0.03562905,0.03238305,-0.01167568,0.08115713,-0.06525295,0.00100921,-0.00003519,0.00003204,-0.00001219,0.00008027,-0.00006512,,,,,,,,,,,,,,,,,,,,,,,
S,-0.5,1730147660555503360,,,,,,,,,,,,,,0.37416768,-0.59716868,0.41233286,0.57738185,-55.14521027,0.00752898,0.00525815,0.00790705,0.00510715,-0.00771987,0.06910562,-0.06720299,9.85916138,-0.38375932,0.32744327,0.09707069,-0.09754702,-0.19342378,-9.76209068,0.28621230,-0.52086705,0.34349823,0.00000000
S,-0.5,1730147660556013056,,1.00808477,-0.03410001,0.03329020,-0.00857353,0.08199567,-0.06235899,0.00100822,-0.00003384,0.00003312,-0.00000952,0.00008365,-0.00006311,,,,,,,,,,,,,,,,,,,,,,,
S,-0.5,1730147660557006080,,1.00970221,-0.03116516,0.03413649,-0.00549651,0.08577122,-0.06440558,0.00100925,-0.00003121,0.00003427,-0.00000507,0.00008535,-0.00006311,,,,,,,,,,,,,,,,,,,,,,,
S,-0.5,1730147660557496320,,,,,,,,,,,,,,0.37417102,-0.59724247,0.41231465,0.57731640,-55.14521027,0.00752898,0.00525815,0.00790705,0.00510715,-0.01057122,0.07788830,-0.06823527,9.89699841,-0.34505054,0.31418300,0.13494492,-0.06015074,-0.20811337,-9.76205349,0.28489980,-0.52229637,0.34349823,0.00000000
S,-0.5,1730147660557998592,,1.00700450,-0.02998910,0.03550431,-0.00574219,0.08583756,-0.06006637,0.00100801,-0.00002927,0.00003553,-0.00000472,0.00008703,-0.00006151,,,,,,,,,,,,,,,,,,,,,,,
S,-0.5,1730147660558990080,,1.00777841,-0.02691892,0.03550494,-0.00672062,0.08891568,-0.05910011,0.00100678,-0.00002710,0.00003594,-0.00000662,0.00008838,-0.00005789,,,,,,,,,,,,,,,,,,,,,,,
S,-0.5,1730147660559487488,,,,,,,,,,,,,,0.37417248,-0.59731925,0.41230056,0.57724613,-55.14521027,0.00752898,0.00525815,0.00790705,0.00510715,-0.00345148,0.08296546,-0.06623138,9.89733410,-0.30608201,0.33608991,0.13532543,-0.02248684,-0.18777215,-9.76200867,0.28359517,-0.52386206,0.34349823,0.00000000
S,-0.5,1730147660559981056,,1.00328946,-0.02493174,0.03891732,-0.00504012,0.09111097,-0.05685044,0.00100435,-0.00002432,0.00003830,-0.00000566,0.00009169,-0.00005695,,,,,,,,,,,,,,,,,,,,,,,
S,-0.5,1730147660560971264,,1.00153148,-0.02613793,0.03988333,-0.00248889,0.09244358,-0.05124684,0.00100042,-0.00002529,0.00004079,-0.00000242,0.00009290,-0.00005155,,,,,,,,,,,,,,,,,,,,,,,
S,-0.5,1730147660561481984,,,,,,,,,,,,,,0.37417182,-0.59739578,0.41229168,0.57717353,-55.14521027,0.00752898,0.00525815,0.00790705,0.00510715,-0.00500437,0.08599087,-0.06101324,9.87313080,-0.26578662,0.35245427,0.11117744,0.01657009,-0.17305669,-9.76195335,0.28235671,-0.52551097,0.34349823,0.00000000
S,-0.5,1730147660561965568,,1.00144851,-0.02609289,0.04183221,-0.00407601,0.09333562,-0.05281187,0.00100090,-0.00002649,0.00004179,-0.00000298,0.00009360,-0.00005074,,,,,,,,,,,,,,,,,,,,,,,
S,-0.5,1730147660562958848,,1.00118041,-0.02755014,0.04411158,-0.00730836,0.09011578,-0.05269337,0.00100120,-0.00002727,0.00004432,-0.00000723,0.00009098,-0.00005321,,,,,,,,,,,,,,,,,,,,,,,
S,-0.5,1730147660563475456,,,,,,,,,,,,,,0.37416708,-0.59747165,0.41228846,0.57710034,-55.14521027,0.00752898,0.00525815,0.00790705,0.00510715,-0.00080081,0.09051356,-0.05466769,9.81078911,-0.24797738,0.40005395,0.04889584,0.03325281,-0.12717900,-9.76189327,0.28123018,-0.52723294,0.34349823,0.00000000
S,-0.5,1730147660563951616,,1.00273430,-0.02487338,0.04532322,-0.00739007,0.08970490,-0.05403339,0.00100237,-0.00002582,0.00004583,-0.00000840,0.00008875,-0.00005375,,,,,,,,,,,,,,,,,,,,,,,
S,-0.5,1730147660564943616,,0.99968022,-0.02325393,0.04416157,-0.01206015,0.09280024,-0.05192420,0.00100073,-0.00002270,0.00004476,-0.00001124,0.00009211,-0.00005273,,,,,,,,,,,,,,,,,,,,,,,
S,-0.5,1730147660565466880,,,,,,,,,,,,,,0.37416029,-0.59754741,0.41228694,0.57702738,-55.14521027,0.00752898,0.00525815,0.00790705,0.00510715,-0.00560966,0.08859808,-0.05633183,9.81844425,-0.26743561,0.43460682,0.05661583,0.01271409,-0.09437254,-9.76182842,0.28014970,-0.52897936,0.34349823,0.00000000
S,-0.5,1730147660565934848,,0.99678838,-0.02351410,0.04142091,-0.01453590,0.08960897,-0.04753017,0.00099634,-0.00002295,0.00004155,-0.00001557,0.00009117,-0.00004766,,,,,,,,,,,,,,,,,,,,,,,
S,-0.5,1730147660566925056,,0.99528682,-0.02620831,0.03964369,-0.01941632,0.08622138,-0.04231312,0.00099464,-0.00002580,0.00003909,-0.00001932,0.00008582,-0.00004186,,,,,,,,,,,,,,,,,,,,,,,
S,-0.5,1730147660567457024,,,,,,,,,,,,,,0.37415135,-0.59762484,0.41228235,0.57695627,-55.14521027,0.00752898,0.00525815,0.00790705,0.00510715,-0.00962098,0.08972041,-0.05585274,9.81380749,-0.22257392,0.43893185,0.05204201,0.05648829,-0.09178349,-9.76176548,0.27906221,-0.53071535,0.34349823,0.00000000
S,-0.5,1730147660567919360,,0.99401277,-0.02587136,0.03931826,-0.02020282,0.08536039,-0.03938826,0.00099377,-0.00002679,0.00003881,-0.00002161,0.00008444,-0.00003826,,,,,,,,,,,,,,,,,,,,,,,
S,-0.5,1730147660568912640,,0.99355471,-0.02502948,0.03879473,-0.01640709,0.08079071,-0.03908772,0.00099323,-0.00002508,0.00003879,-0.00001735,0.00008135,-0.00003821,,,,,,,,,,,,,,,,,,,,,,,
S,-0.5,1730147660569450240,,,,,,,,,,,,,,0.37413657,-0.59770072,0.41227672,0.57689130,-55.14521027,0.00752898,0.00525815,0.00790705,0.00510715,-0.01770098,0.08343441,-0.04498110,9.75407887,-0.25303221,0.38337898,-0.00762367,0.02506000,-0.14901906,-9.76170254,0.27809221,-0.53239805,0.34349823,0.00000000
S,-0.5,1730147660569905152,,0.99507254,-0.02457700,0.03596959,-0.01244687,0.07625562,-0.03743744,0.00099465,-0.00002439,0.00003632,-0.00001196,0.00007563,-0.00003764,,,,,,,,,,,,,,,,,,,,,,,
S,-0.5,1730147660570896896,,0.99642694,-0.02539515,0.03483152,-0.01295109,0.07182186,-0.03614857,0.00099666,-0.00002510,0.00003414,-0.00001160,0.00007118,-0.00003586,,,,,,,,,,,,,,,,,,,,,,,
S,-0.5,1730147660571441664,,,,,,,,,,,,,,0.37411800,-0.59777158,0.41227165,0.57683355,-55.14521027,0.00752898,0.00525815,0.00790705,0.00510715,-0.01573045,0.07896022,-0.04133013,9.74028301,-0.24590352,0.38036087,-0.02135658,0.03136441,-0.15361229,-9.76163960,0.27726793,-0.53397316,0.34349823,0.00000000
S,-0.5,1730147660571887872,,0.99508971,-0.02522449,0.03573906,-0.00768315,0.06803338,-0.03020197,0.00099576,-0.00002552,0.00003521,-0.00000880,0.00006731,-0.00003087,,,,,,,,,,,,,,,,,,,,,,,
S,-0.5,1730147660572877824,,0.99579257,-0.02524386,0.03635326,-0.00789547,0.06753989,-0.02567915,0.00099524,-0.00002519,0.00003653,-0.00000618,0.00006642,-0.00002461,,,,,,,,,,,,,,,,,,,,,,,
S,-0.5,1730147660573431296,,,,,,,,,,,,,,0.37410301,-0.59783554,0.41226786,0.57677966,-55.14521027,0.00752898,0.00525815,0.00790705,0.00510715,-0.00998226,0.06879719,-0.03897623,9.77393532,-0.24617267,0.33478579,0.01235199,0.03032517,-0.20062265,-9.76158333,0.27649784,-0.53540844,0.34349823,0.00000000
S,-0.5,1730147660573872128,,0.99762654,-0.02414411,0.03925925,-0.00312454,0.06386207,-0.02271884,0.00099752,-0.00002435,0.00003893,-0.00000406,0.00006437,-0.00002182,,,,,,,,,,,,,,,,,,,,,,,
S,-0.5,1730147660574865664,,0.99541861,-0.02393677,0.03866888,-0.00156328,0.05738610,-0.02509069,0.00099640,-0.00002362,0.00003970,-0.00000033,0.00005739,-0.00002372,,,,,,,,,,,,,,,,,,,,,,,
S,-0.5,1730147660575424256,,,,,,,,,,,,,,0.37409052,-0.59789032,0.41226858,0.57673049,-55.14521027,0.00752898,0.00525815,0.00790705,0.00510715,-0.00456338,0.06403697,-0.02772685,9.75996304,-0.24699546,0.35824162,-0.00156689,0.02885909,-0.17845905,-9.76152992,0.27585456,-0.53670067,0.34349823,0.00000000
S,-0.5,1730147660575858688,,0.99424762,-0.02206920,0.04380938,-0.00048901,0.05330406,-0.01941487,0.00099376,-0.00002234,0.00004269,-0.00000019,0.00005198,-0.00002120,,,,,,,,,,,,,,,,,,,,,,,
S,-0.5,1730147660576850688,,0.99392945,-0.02315705,0.04767461,0.00245282,0.04981912,-0.01999183,0.00099361,-0.00002237,0.00004861,0.00000226,0.00004915,-0.00001808,,,,,,,,,,,,,,,,,,,,,,,
S,-0.5,1730147660577415936,,,,,,,,,,,,,,0.37408075,-0.59793651,0.41227359,0.57668537,-55.14521027,0.00752898,0.00525815,0.00790705,0.00510715,0.00128831,0.05500536,-0.02683626,9.77138138,-0.23167437,0.38932976,0.00990009,0.04364914,-0.14853194,-9.76148129,0.27532351,-0.53786170,0.34349823,0.00000000
S,-0.5,1730147660577841920,,0.99317026,-0.02253774,0.04976677,0.00328617,0.05081034,-0.01515280,0.00099321,-0.00002300,0.00005062,0.00000407,0.00004952,-0.00001622,,,,,,,,,,,,,,,,,,,,,,,
S,-0.5,1730147660578832384,,0.99429697,-0.02096692,0.05209902,0.00300519,0.04468299,-0.01149682,0.00099385,-0.00002106,0.00005234,0.00000332,0.00004611,-0.00001062,,,,,,,,,,,,,,,,,,,,,,,
S,-0.5,1730147660579406080,,,,,,,,,,,,,,0.37407517,-0.59797478,0.41227975,0.57664490,-55.14521027,0.00752898,0.00525815,0.00790705,0.00510715,0.00387692,0.04676626,-0.02119914,9.74403000,-0.21932754,0.47668532,-0.01741028,0.05552438,-0.06217101,-9.76144028,0.27485192,-0.53885633,0.34349823,0.00000000
S,-0.5,1730147660579826432,,0.99486560,-0.02121716,0.05497742,0.00274221,0.04217509,-0.00746616,0.00099512,-0.00002067,0.00005520,0.00000270,0.00004068,-0.00000703,,,,,,,,,,,,,,,,,,,,,,,
S,-0.5,1730147660580819712,,0.99372917,-0.01983646,0.05579510,0.00410790,0.03691060,-0.00567134,0.00099412,-0.00002017,0.00005656,0.00000378,0.00003707,-0.00000471,,,,,,,,,,,,,,,,,,,,,,,
S,-0.5,1730147660581399296,,,,,,,,,,,,,,0.37406924,-0.59800643,0.41228878,0.57660949,-55.14521027,0.00752898,0.00525815,0.00790705,0.00510715,0.00493816,0.04372511,-0.01373955,9.74634552,-0.20648545,0.51328927,-0.01505566,0.06802049,-0.02645248,-9.76140118,0.27450594,-0.53974175,0.34349823,0.00000000
S,-0.5,1730147660581812224,,0.99520767,-0.01944835,0.05559025,0.00506400,0.03856466,-0.00593999,0.00099458,-0.00001908,0.00005589,0.00000532,0.00003659,-0.00000532,,,,,,,,,,,,,,,,,,,,,,,
S,-0.5,1730147660582803968,,0.99497783,-0.01867161,0.05589852,0.00476562,0.03510180,-0.00499636,0.00099549,-0.00001869,0.00005578,0.00000512,0.00003626,-0.00000525,,,,,,,,,,,,,,,,,,,,,,,
S,-0.5,1730147660583399424,,,,,,,,,,,,,,0.37406239,-0.59803152,0.41229999,0.57657987,-55.14521027,0.00752898,0.00525815,0.00790705,0.00510715,0.00539271,0.03468214,-0.00783324,9.74895477,-0.19777234,0.55468839,-0.01240921,0.07651763,0.01417816,-9.76136398,0.27428997,-0.54051024,0.34349823,0.00000000
S,-0.5,1730147660583804160,,0.99538088,-0.01917049,0.05585827,0.00185653,0.03074766,-0.00055726,0.00099523,-0.00001883,0.00005596,0.00000229,0.00003044,-0.00000106,,,,,,,,,,,,,,,,,,,,,,,
S,-0.5,1730147660584803328,,0.99316686,-0.01728369,0.05487949,-0.00326290,0.02786096,0.00419147,0.00099370,-0.00001779,0.00005504,-0.00000326,0.00002700,0.00000474,,,,,,,,,,,,,,,,,,,,,,,
S,-0.5,1730147660585397760,,,,,,,,,,,,,,0.37405655,-0.59805238,0.41231146,0.57655382,-55.14521027,0.00752898,0.00525815,0.00790705,0.00510715,0.00674081,0.03387080,-0.00837212,9.76242352,-0.18327849,0.54698819,0.00109100,0.09084649,0.00580490,-9.76133251,0.27412498,-0.54118329,0.34349823,0.00000000
S,-0.5,1730147660585801728,,0.99435538,-0.01951759,0.05643673,0.00243777,0.02467097,0.00748118,0.00099343,-0.00001851,0.00005584,-0.00000023,0.00002433,0.00000840,,,,,,,,,,,,,,,,,,,,,,,
S,-0.5,1730147660586800896,,0.99628967,-0.01846441,0.05716191,0.00691908,0.01925416,0.00955790,0.00099632,-0.00001937,0.00005753,0.00000792,0.00001922,0.00001023,,,,,,,,,,,,,,,,,,,,,,,
S,-0.5,1730147660587396352,,,,,,,,,,,,,,0.37404796,-0.59806967,0.41232187,0.57653403,-55.14521027,0.00752898,0.00525815,0.00790705,0.00510715,-0.00164208,0.02461280,0.00162290,9.74484253,-0.17441922,0.53979945,-0.01645947,0.09963754,-0.00195575,-9.76130199,0.27405676,-0.54175520,0.34349823,0.00000000
S,-0.5,1730147660587799552,,0.99801618,-0.01877587,0.05687840,0.00694064,0.01426960,0.00824018,0.00099832,-0.00001838,0.00005716,0.00000836,0.00001345,0.00000914,,,,,,,,,,,,,,,,,,,,,,,
S,-0.5,1730147660588797184,,1.00026166,-0.01912134,0.05577305,0.00877723,0.01219921,0.00633775,0.00100040,-0.00001916,0.00005588,0.00000845,0.00001099,0.00000626,,,,,,,,,,,,,,,,,,,,,,,
S,-0.5,1730147660589393920,,,,,,,,,,,,,,0.37403926,-0.59807831,0.41233450,0.57652164,-55.14521027,0.00752898,0.00525815,0.00790705,0.00510715,0.00953610,0.01683626,0.00710892,9.77052689,-0.18992485,0.56413168,0.00924969,0.08421294,0.02196956,-9.76127720,0.27413779,-0.54216212,0.34349823,0.00000000
S,-0.5,1730147660589794304,,1.00150752,-0.01930242,0.05583929,0.01261848,0.00903489,0.01031116,0.00100200,-0.00001938,0.00005548,0.00001251,0.00000895,0.00000898,,,,,,,,,,,,,,,,,,,,,,,
S,-0.5,1730147660590790400,,1.00233495,-0.02144950,0.05647540,0.01074176,0.00494532,0.01046863,0.00100258,-0.00002112,0.00005638,0.00001231,0.00000468,0.00001170,,,,,,,,,,,,,,,,,,,,,,,
S,-0.5,1730147660591389696,,,,,,,,,,,,,,0.37403694,-0.59807986,0.41234797,0.57651192,-55.14521027,0.00752898,0.00525815,0.00790705,0.00510715,0.01006705,0.00860207,0.00314517,9.81060410,-0.18787065,0.54802924,0.04934406,0.08635634,0.00561398,-9.76126003,0.27422699,-0.54241526,0.34349823,0.00000000
S,-0.5,1730147660591785728,,0.99928719,-0.02081329,0.05919674,0.01140869,0.00169395,0.01304775,0.00100010,-0.00002161,0.00005890,0.00001069,0.00000098,0.00001263,,,,,,,,,,,,,,,,,,,,,,,
S,-0.5,1730147660592780032,,1.00052822,-0.01914685,0.06033623,0.01223195,-0.00458042,0.01468638,0.00099933,-0.00001925,0.00006099,0.00001229,-0.00000448,0.00001521,,,,,,,,,,,,,,,,,,,,,,,
S,-0.5,1730147660593383680,,,,,,,,,,,,,,0.37403849,-0.59807611,0.41236043,0.57650590,-55.14521027,0.00752898,0.00525815,0.00790705,0.00510715,0.01392209,0.00229444,0.00858599,9.83196354,-0.20708965,0.55290431,0.07071209,0.06723879,0.01037592,-9.76125145,0.27432844,-0.54252839,0.34349823,0.00000000
S,-0.5,1730147660593774080,,1.00069201,-0.01829963,0.05885675,0.01522265,-0.00584207,0.01572920,0.00100106,-0.00001792,0.00005949,0.00001494,-0.00000761,0.00001606,,,,,,,,,,,,,,,,,,,,,,,
S,-0.5,1730147660594767360,,1.00167811,-0.01811226,0.05977202,0.01520066,-0.00443331,0.02046477,0.00100155,-0.00001788,0.00005914,0.00001616,-0.00000509,0.00001994,,,,,,,,,,,,,,,,,,,,,,,
S,-0.5,1730147660595376384,,,,,,,,,,,,,,0.37404180,-0.59806532,0.41237378,0.57650542,-55.15049362,0.00752898,0.00525815,0.00790705,0.00510715,0.01391131,-0.00686204,0.01209082,9.80010605,-0.18875174,0.59815639,0.03885746,0.08576353,0.05566567,-9.76124859,0.27451527,-0.54249072,0.33821487,0.00000000
S,-0.5,1730147660595759872,,1.00291348,-0.01813421,0.06184515,0.01523915,-0.00517737,0.02075245,0.00100300,-0.00001807,0.00006176,0.00001523,-0.00000459,0.00002221,,,,,,,,,,,,,,,,,,,,,,,
S,-0.5,1730147660596751360,,1.00263953,-0.01961446,0.06175065,0.01662277,-0.00454234,0.02127358,0.00100308,-0.00001935,0.00006243,0.00001638,-0.00000489,0.00002127,,,,,,,,,,,,,,,,,,,,,,,
S,-0.5,1730147660597367296,,,,,,,,,,,,,,0.37404591,-0.59804928,0.41238889,0.57650858,-55.15049362,0.00752898,0.00525815,0.00790705,0.00510715,0.01777327,-0.00747755,0.01681752,9.82186127,-0.17531291,0.57991630,0.06061268,0.09946761,0.03755701,-9.76124859,0.27478051,-0.54235929,0.33821487,0.00000000
S,-0.5,1730147660597745664,,1.00430548,-0.01942016,0.06357571,0.01906550,-0.00587393,0.02040624,0.00100392,-0.00001993,0.00006321,0.00001906,-0.00000543,0.00002073,,,,,,,,,,,,,,,,,,,,,,,
S,-0.5,1730147660598738944,,1.00285554,-0.02168342,0.06259390,0.01892805,-0.01064668,0.02152443,0.00100365,-0.00002121,0.00006335,0.00001973,-0.00001020,0.00002105,,,,,,,,,,,,,,,,,,,,,,,
S,-0.5,1730147660599368192,,,,,,,,,,,,,,0.37404957,-0.59803110,0.41240689,0.57651216,-55.15049362,0.00752898,0.00525815,0.00790705,0.00510715,0.01800028,-0.00728123,0.01815167,9.83687973,-0.18978240,0.61220658,0.07563400,0.08532019,0.06998158,-9.76124573,0.27510259,-0.54222500,0.33821487,0.00000000
S,-0.5,1730147660599741440,,1.00408280,-0.02010235,0.06288156,0.02197624,-0.01306168,0.02162414,0.00100340,-0.00002111,0.00006252,0.00002138,-0.00001414,0.00002196,,,,,,,,,,,,,,,,,,,,,,,
S,-0.5,1730147660600743168,,1.00304830,-0.02205315,0.06502354,0.02064553,-0.01394689,0.02150599,0.00100363,-0.00002120,0.00006473,0.00002186,-0.00001455,0.00002156,,,,,,,,,,,,,,,,,,,,,,,
S,-0.5,1730147660601369344,,,,,,,,,,,,,,0.37405503,-0.59801060,0.41242531,0.57651675,-55.15049362,0.00752898,0.00525815,0.00790705,0.00510715,0.02134722,-0.01259006,0.01792639,9.84243679,-0.20800282,0.62127900,0.08118916,0.06743057,0.07923734,-9.76124763,0.27543339,-0.54204166,0.33821487,0.00000000
S,-0.5,1730147660601744128,,1.00413048,-0.02213708,0.06611925,0.02092660,-0.01391182,0.01901343,0.00100360,-0.00002274,0.00006660,0.00002045,-0.00001420,0.00001943,,,,,,,,,,,,,,,,,,,,,,,
S,-0.5,1730147660602744576,,1.00333059,-0.02077848,0.06353813,0.02161954,-0.01942618,0.01802386,0.00100382,-0.00002105,0.00006436,0.00002158,-0.00001841,0.00001741,,,,,,,,,,,,,,,,,,,,,,,
S,-0.5,1730147660603369216,,,,,,,,,,,,,,0.37406403,-0.59798622,0.41244358,0.57652313,-55.15049362,0.00752898,0.00525815,0.00790705,0.00510715,0.02347422,-0.01694145,0.01844040,9.84221840,-0.20785592,0.63474423,0.08096504,0.06790830,0.09297806,-9.76125336,0.27576423,-0.54176617,0.33821487,0.00000000
S,-0.5,1730147660603744512,,1.00303745,-0.02071150,0.06173033,0.02455691,-0.01979019,0.01519315,0.00100284,-0.00002029,0.00006124,0.00002424,-0.00002148,0.00001539,,,,,,,,,,,,,,,,,,,,,,,
S,-0.5,1730147660604743424,,1.00315893,-0.02300443,0.06071116,0.01842011,-0.02098094,0.01557158,0.00100304,-0.00002257,0.00006032,0.00002047,-0.00002088,0.00001460,,,,,,,,,,,,,,,,,,,,,,,
S,-0.5,1730147660605367808,,,,,,,,,,,,,,0.37397075,-0.59802747,0.41231269,0.57663453,-55.15049362,0.00752451,0.00525632,0.00790145,0.00510197,0.02320037,-0.02079982,0.01429122,9.84411526,-0.20644818,0.63111210,0.08280277,0.06952764,0.09049386,-9.76131248,0.27597582,-0.54061824,0.33821487,0.00000000
S,-0.5,1730147660605742592,,1.00122845,-0.02436211,0.06166088,0.01831355,-0.01888781,0.01254260,0.00100162,-0.00002485,0.00006116,0.00001638,-0.00001965,0.00001321,,,,,,,,,,,,,,,,,,,,,,,
S,-0.5,1730147660606740992,,1.00028086,-0.02328211,0.06299267,0.02007080,-0.01953135,0.01119318,0.00099984,-0.00002391,0.00006305,0.00001972,-0.00001875,0.00001047,,,,,,,,,,,,,,,,,,,,,,,
S,-0.5,1730147660607365376,,,,,,,,,,,,,,0.37398595,-0.59800100,0.41232520,0.57664317,-55.15049362,0.00752451,0.00525632,0.00790145,0.00510197,0.02208736,-0.02326718,0.01148275,9.83649635,-0.22130135,0.59154636,0.07516766,0.05490094,0.05134547,-9.76132870,0.27620229,-0.54020089,0.33821487,0.00000000
S,-0.5,1730147660607738880,,1.00039291,-0.02376413,0.06425124,0.02347234,-0.02200217,0.00967651,0.00100007,-0.00002333,0.00006445,0.00002341,-0.00002176,0.00000952,,,,,,,,,,,,,,,,,,,,,,,
S,-0.5,1730147660608735744,,0.99994588,-0.02512671,0.06371345,0.02046548,-0.02483132,0.00990539,0.00100006,-0.00002503,0.00006421,0.00002209,-0.00002510,0.00000938,,,,,,,,,,,,,,,,,,,,,,,
S,-0.5,1730147660609362176,,,,,,,,,,,,,,0.37400267,-0.59797621,0.41233504,0.57665104,-55.15049362,0.00752451,0.00525632,0.00790145,0.00510197,0.02133487,-0.02113486,0.00735518,9.80506706,-0.23447955,0.61833948,0.04371929,0.04188335,0.07856065,-9.76134777,0.27636290,-0.53977883,0.33821487,0.00000000
S,-0.5,1730147660609732096,,0.99710953,-0.02426882,0.06404239,0.02069476,-0.02443961,0.01211593,0.00099748,-0.00002486,0.00006381,0.00001970,-0.00002541,0.00001179,,,,,,,,,,,,,,,,,,,,,,,
S,-0.5,1730147660610727680,,0.99823081,-0.02319930,0.06324846,0.01570601,-0.02461797,0.00850199,0.00099712,-0.00002312,0.00006350,0.00001669,-0.00002446,0.00000986,,,,,,,,,,,,,,,,,,,,,,,
S,-0.5,1730147660611361024,,,,,,,,,,,,,,0.37402225,-0.59795094,0.41234300,0.57665884,-55.15049362,0.00752451,0.00525632,0.00790145,0.00510197,0.02371180,-0.02749049,0.00626200,9.80726624,-0.24548562,0.62969959,0.04589558,0.03098570,0.09038341,-9.76137066,0.27647132,-0.53931618,0.33821487,0.00000000
S,-0.5,1730147660611726080,,0.99794662,-0.02284266,0.06374836,0.01323002,-0.02375154,0.01158395,0.00099836,-0.00002257,0.00006340,0.00001209,-0.00002397,0.00000987,,,,,,,,,,,,,,,,,,,,,,,
S,-0.5,1730147660612723968,,0.99837703,-0.02379038,0.06167789,0.00706865,-0.02728031,0.01278065,0.00099821,-0.00002350,0.00006221,0.00000740,-0.00002636,0.00001354,,,,,,,,,,,,,,,,,,,,,,,
S,-0.5,1730147660613358336,,,,,,,,,,,,,,0.37404227,-0.59792471,0.41234884,0.57666886,-55.15049362,0.00752451,0.00525632,0.00790145,0.00510197,0.01830266,-0.02684759,0.00674322,9.77844810,-0.22673374,0.62269771,0.01705265,0.04984194,0.08390051,-9.76139545,0.27657568,-0.53879720,0.33821487,0.00000000
S,-0.5,1730147660613721088,,0.99844980,-0.02452667,0.06084648,0.01073308,-0.02817622,0.00312528,0.00099857,-0.00002469,0.00006034,0.00000811,-0.00002914,0.00000526,,,,,,,,,,,,,,,,,,,,,,,
S,-0.5,1730147660614717184,,0.99917346,-0.02640564,0.05665161,0.01281246,-0.02861099,0.00792759,0.00099907,-0.00002630,0.00005715,0.00001360,-0.00002882,0.00000398,,,,,,,,,,,,,,,,,,,,,,,
S,-0.5,1730147660615354368,,,,,,,,,,,,,,0.37405697,-0.59790003,0.41235146,0.57668304,-55.15049362,0.00752451,0.00525632,0.00790145,0.00510197,0.00901723,-0.02875009,0.01042520,9.78907967,-0.23050526,0.61010098,0.02765846,0.04622313,0.07183880,-9.76142120,0.27672839,-0.53826219,0.33821487,0.00000000
S,-0.5,1730147660615713280,,0.99890149,-0.02839492,0.05662102,0.01234491,-0.03520656,0.00651617,0.00099918,-0.00002863,0.00005529,0.00001309,-0.00003415,0.00000830,,,,,,,,,,,,,,,,,,,,,,,
S,-0.5,1730147660616708352,,1.00032270,-0.02687520,0.05557859,0.01523594,-0.03742282,0.00946678,0.00099998,-0.00002778,0.00005576,0.00001456,-0.00003912,0.00000848,,,,,,,,,,,,,,,,,,,,,,,
S,-0.5,1730147660617349376,,,,,,,,,,,,,,0.37407333,-0.59787589,0.41235059,0.57669806,-55.15049362,0.00752451,0.00525632,0.00790145,0.00510197,0.01521834,-0.03120388,0.00086266,9.79748344,-0.25790000,0.56044185,0.03603363,0.01892489,0.02275795,-9.76144981,0.27682489,-0.53768390,0.33821487,0.00000000
S,-0.5,1730147660617703424,,1.00010204,-0.02707453,0.05515230,0.01915129,-0.03420078,0.01225456,0.00100059,-0.00002655,0.00005490,0.00001936,-0.00003549,0.00001269,,,,,,,,,,,,,,,,,,,,,,,
S,-0.5,1730147660618697472,,0.99905819,-0.02892965,0.05701478,0.01841445,-0.03118850,0.01832237,0.00099918,-0.00002866,0.00005654,0.00001979,-0.00003071,0.00001811,,,,,,,,,,,,,,,,,,,,,,,
S,-0.5,1730147660619343360,,,,,,,,,,,,,,0.37409592,-0.59784776,0.41234791,0.57671452,-55.15049362,0.00752451,0.00525632,0.00790145,0.00510197,0.01617910,-0.04150630,0.00536239,9.80643368,-0.27247322,0.54679769,0.04494667,0.00439566,0.00981557,-9.76148701,0.27686888,-0.53698212,0.33821487,0.00000000
S,-0.5,1730147660619691008,,0.99918479,-0.02986413,0.05730658,0.02153109,-0.03209453,0.01561358,0.00099883,-0.00003028,0.00005785,0.00002073,-0.00003097,0.00001804,,,,,,,,,,,,,,,,,,,,,,,
S,-0.5,1730147660620683776,,0.99885190,-0.02802537,0.05573455,0.02186027,-0.03782468,0.01454350,0.00099895,-0.00002866,0.00005611,0.00002279,-0.00003707,0.00001388,,,,,,,,,,,,,,,,,,,,,,,
S,-0.5,1730147660621336576,,,,,,,,,,,,,,0.37411666,-0.59781504,0.41235089,0.57673287,-55.15049362,0.00752451,0.00525632,0.00790145,0.00510197,0.02141185,-0.03309691,0.01498828,9.79858398,-0.28102419,0.55447859,0.03706169,-0.00397661,0.01821417,-9.76152229,0.27704757,-0.53626442,0.33821487,0.00000000
S,-0.5,1730147660621678336,,1.00000823,-0.02581370,0.05754506,0.02700385,-0.03766650,0.01208563,0.00099969,-0.00002563,0.00005672,0.00002617,-0.00003952,0.00001219,,,,,,,,,,,,,,,,,,,,,,,
S,-0.5,1730147660622673152,,0.99999106,-0.02456039,0.05632934,0.02660170,-0.04066451,0.01577202,0.00100036,-0.00002408,0.00005713,0.00002831,-0.00004007,0.00001432,,,,,,,,,,,,,,,,,,,,,,,
S,-0.5,1730147660623330816,,,,,,,,,,,,,,0.37413788,-0.59778023,0.41235822,0.57674992,-55.15049362,0.00752451,0.00525632,0.00790145,0.00510197,0.02440980,-0.03945867,0.01075666,9.79637909,-0.28102475,0.55027616,0.03482533,-0.00375041,0.01470697,-9.76155376,0.27727434,-0.53556919,0.33821487,0.00000000
S,-0.5,1730147660623667712,,1.00091791,-0.02430884,0.05624519,0.02379730,-0.03942674,0.01860526,0.00100074,-0.00002396,0.00005587,0.00002418,-0.00004061,0.00001926,,,,,,,,,,,,,,,,,,,,,,,
S,-0.5,1730147660624665088,,1.00086021,-0.02455585,0.05568955,0.02776454,-0.04679161,0.01983437,0.00100117,-0.00002443,0.00005576,0.00002615,-0.00004506,0.00002051,,,,,,,,,,,,,,,,,,,,,,,
S,-0.5,1730147660625328384,,,,,,,,,,,,,,0.37416467,-0.59774190,0.41236514,0.57676733,-55.15049362,0.00752451,0.00525632,0.00790145,0.00510197,0.02992927,-0.04245616,0.01120086,9.81020355,-0.23618601,0.56021947,0.04861164,0.04127426,0.02543515,-9.76159191,0.27746028,-0.53478432,0.33821487,0.00000000
S,-0.5,1730147660625662720,,1.00264573,-0.02204186,0.05564300,0.02884030,-0.04534511,0.02212071,0.00100230,-0.00002258,0.00005547,0.00002991,-0.00004795,0.00002210,,,,,,,,,,,,,,,,,,,,,,,
S,-0.5,1730147660626659328,,1.00113165,-0.02144249,0.05234336,0.03275176,-0.04401716,0.02308745,0.00100198,-0.00002075,0.00005293,0.00003238,-0.00004380,0.00002364,,,,,,,,,,,,,,,,,,,,,,,
S,-0.5,1730147660627324416,,,,,,,,,,,,,,0.37419221,-0.59769928,0.41237351,0.57678765,-55.15049362,0.00752451,0.00525632,0.00790145,0.00510197,0.02776832,-0.04744621,0.01739388,9.81808090,-0.23958622,0.54685163,0.05644894,0.03812210,0.01292902,-9.76163197,0.27770832,-0.53392261,0.33821487,0.00000000
S,-0.5,1730147660627655168,,1.00219512,-0.02251417,0.05165987,0.03235776,-0.04595704,0.02525371,0.00100152,-0.00002213,0.00005073,0.00003367,-0.00004518,0.00002517,,,,,,,,,,,,,,,,,,,,,,,
S,-0.5,1730147660628650240,,1.00248611,-0.02268822,0.05149685,0.03315746,-0.05039293,0.02722277,0.00100277,-0.00002300,0.00005131,0.00003289,-0.00005020,0.00002755,,,,,,,,,,,,,,,,,,,,,,,
S,-0.5,1730147660629318912,,,,,,,,,,,,,,0.37421903,-0.59765291,0.41238514,0.57681000,-55.15049362,0.00752451,0.00525632,0.00790145,0.00510197,0.03400075,-0.04618471,0.02052056,9.82601929,-0.20350040,0.51905042,0.06434822,0.07454546,-0.01397520,-9.76167107,0.27804586,-0.53302562,0.33821487,0.00000000
S,-0.5,1730147660629644544,,1.00524390,-0.02490191,0.05089127,0.03317866,-0.05131667,0.02954001,0.00100484,-0.00002456,0.00005095,0.00003343,-0.00005256,0.00002975,,,,,,,,,,,,,,,,,,,,,,,
S,-0.5,1730147660630638080,,1.00601697,-0.02242274,0.05235480,0.03442847,-0.04946024,0.03240325,0.00100675,-0.00002358,0.00005190,0.00003421,-0.00005009,0.00003262,,,,,,,,,,,,,,,,,,,,,,,
S,-0.5,1730147660631312128,,,,,,,,,,,,,,0.37424690,-0.59760231,0.41239986,0.57683378,-55.15049362,0.00752451,0.00525632,0.00790145,0.00510197,0.03450401,-0.05259117,0.02443551,9.83383274,-0.22553264,0.50316441,0.07212162,0.05291574,-0.02891654,-9.76171112,0.27844837,-0.53208095,0.33821487,0.00000000
S,-0.5,1730147660631630848,,1.00636280,-0.02194474,0.05232013,0.03778482,-0.04405234,0.03230374,0.00100655,-0.00002124,0.00005279,0.00003757,-0.00004444,0.00003323,,,,,,,,,,,,,,,,,,,,,,,
S,-0.5,1730147660632622848,,1.00458372,-0.01847638,0.05169557,0.03983309,-0.05308311,0.02709056,0.00100502,-0.00001895,0.00005180,0.00004053,-0.00004972,0.00002801,,,,,,,,,,,,,,,,,,,,,,,
S,-0.5,1730147660633303552,,,,,,,,,,,,,,0.37427402,-0.59754771,0.41241661,0.57686079,-55.15049362,0.00752451,0.00525632,0.00790145,0.00510197,0.03582537,-0.05247829,0.02950161,9.87288666,-0.23122178,0.50892937,0.11113453,0.04771598,-0.02214521,-9.76175213,0.27893776,-0.53107458,0.33821487,0.00000000
S,-0.5,1730147660633617152,,1.00530469,-0.01715414,0.04945921,0.04009957,-0.06585298,0.02731424,0.00100461,-0.00001629,0.00004967,0.00004070,-0.00006641,0.00002561,,,,,,,,,,,,,,,,,,,,,,,
S,-0.5,1730147660634610688,,1.00372803,-0.01869597,0.05065113,0.04278829,-0.06142809,0.03297175,0.00100424,-0.00001800,0.00004972,0.00004238,-0.00006630,0.00003202,,,,,,,,,,,,,,,,,,,,,,,
S,-0.5,1730147660635296512,,,,,,,,,,,,,,0.37430319,-0.59749174,0.41243577,0.57688612,-55.15049362,0.00752451,0.00525632,0.00790145,0.00510197,0.04214659,-0.05210761,0.02488704,9.85585022,-0.18587469,0.50796068,0.09405804,0.09355246,-0.02211499,-9.76179218,0.27942714,-0.53007567,0.33821487,0.00000000
S,-0.5,1730147660635603456,,1.00355697,-0.01771769,0.04866559,0.04363786,-0.05751818,0.03330550,0.00100309,-0.00001839,0.00004941,0.00004434,-0.00005682,0.00003505,,,,,,,,,,,,,,,,,,,,,,,
S,-0.5,1730147660636595456,,1.00528669,-0.01631605,0.04797900,0.04552997,-0.06127710,0.03333192,0.00100492,-0.00001626,0.00004747,0.00004546,-0.00005935,0.00003343,,,,,,,,,,,,,,,,,,,,,,,
S,-0.5,1730147660637293568,,,,,,,,,,,,,,0.37433833,-0.59742969,0.41245407,0.57691449,-55.31960297,0.00752451,0.00525632,0.00790145,0.00510197,0.04400181,-0.06868355,0.02889602,9.84826946,-0.17647539,0.48761332,0.08642864,0.10343094,-0.04130751,-9.76184082,0.27990633,-0.52892083,0.16910553,0.00000000
S,-0.5,1730147660637592320,,1.00248051,-0.01668759,0.04764557,0.04936265,-0.05842856,0.03278078,0.00100354,-0.00001617,0.00004749,0.00004927,-0.00006014,0.00003289,,,,,,,,,,,,,,,,,,,,,,,
S,-0.5,1730147660638588416,,1.00000513,-0.01889708,0.04656861,0.05001475,-0.05671931,0.03338434,0.00099956,-0.00001861,0.00004666,0.00005112,-0.00005612,0.00003310,,,,,,,,,,,,,,,,,,,,,,,
S,-0.5,1730147660639289088,,,,,,,,,,,,,,0.37437534,-0.59736282,0.41247362,0.57694572,-55.31960297,0.00752451,0.00525632,0.00790145,0.00510197,0.04707389,-0.06173627,0.03031433,9.85487938,-0.15944798,0.46553671,0.09298611,0.12098823,-0.06213713,-9.76189327,0.28043622,-0.52767384,0.16910553,0.00000000
S,-0.5,1730147660639584000,,1.00221527,-0.02010763,0.04431002,0.05687731,-0.05476426,0.03573083,0.00100103,-0.00002059,0.00004438,0.00005584,-0.00005458,0.00003550,,,,,,,,,,,,,,,,,,,,,,,
S,-0.5,1730147660640578560,,1.00295460,-0.02065340,0.04350748,0.06184195,-0.05728584,0.03915405,0.00100352,-0.00002094,0.00004293,0.00006312,-0.00005621,0.00003928,,,,,,,,,,,,,,,,,,,,,,,
S,-0.5,1730147660641283328,,,,,,,,,,,,,,0.37441257,-0.59729701,0.41249791,0.57697237,-55.31960297,0.00752451,0.00525632,0.00790145,0.00510197,0.05273350,-0.05850985,0.02998025,9.80235195,-0.18254019,0.45756316,0.04041195,0.09843175,-0.06896412,-9.76194000,0.28097194,-0.52652729,0.16910553,0.00000000
S,-0.5,1730147660641572352,,1.00446093,-0.02293258,0.04367076,0.06314640,-0.06017670,0.03974660,0.00100442,-0.00002269,0.00004339,0.00006449,-0.00006045,0.00004073,,,,,,,,,,,,,,,,,,,,,,,
S,-0.5,1730147660642566144,,1.00561666,-0.02587544,0.03926087,0.06814373,-0.05966837,0.03932147,0.00100589,-0.00002607,0.00004011,0.00006765,-0.00006068,0.00003959,,,,,,,,,,,,,,,,,,,,,,,
S,-0.5,1730147660643276800,,,,,,,,,,,,,,0.37445271,-0.59722757,0.41252962,0.57699549,-55.31960297,0.00752451,0.00525632,0.00790145,0.00510197,0.06474159,-0.05859208,0.03616000,9.84120655,-0.20534967,0.42104119,0.07922459,0.07620667,-0.10437608,-9.76198196,0.28155634,-0.52541727,0.16910553,0.00000000
S,-0.5,1730147660643559424,,1.00602388,-0.02668091,0.03827376,0.07431698,-0.05800552,0.04192322,0.00100632,-0.00002747,0.00003705,0.00007479,-0.00005815,0.00004132,,,,,,,,,,,,,,,,,,,,,,,
S,-0.5,1730147660644551680,,1.00480676,-0.02454252,0.03874490,0.07704175,-0.05754617,0.04586937,0.00100516,-0.00002519,0.00003835,0.00007851,-0.00005710,0.00004598,,,,,,,,,,,,,,,,,,,,,,,
S,-0.5,1730147660645268224,,,,,,,,,,,,,,0.37449688,-0.59715241,0.41256720,0.57701778,-55.31960297,0.00752451,0.00525632,0.00790145,0.00510197,0.06926825,-0.06306761,0.03646833,9.86437225,-0.25562122,0.39338449,0.10234547,0.02657372,-0.13088253,-9.76202679,0.28219494,-0.52426702,0.16910553,0.00000000
S,-0.5,1730147660645545984,,1.00328374,-0.02294095,0.03934469,0.07964040,-0.05942140,0.04494794,0.00100317,-0.00002255,0.00003939,0.00008004,-0.00005893,0.00004637,,,,,,,,,,,,,,,,,,,,,,,
S,-0.5,1730147660646540032,,1.00279951,-0.02151489,0.04095799,0.08774421,-0.05811877,0.04678301,0.00100240,-0.00002126,0.00004086,0.00008710,-0.00005895,0.00004616,,,,,,,,,,,,,,,,,,,,,,,
S,-0.5,1730147660647261952,,,,,,,,,,,,,,0.37454388,-0.59707272,0.41261104,0.57703841,-55.31960297,0.00752451,0.00525632,0.00790145,0.00510197,0.08012892,-0.05948705,0.04286156,9.85722733,-0.24700813,0.37603796,0.09515953,0.03588285,-0.14707494,-9.76206779,0.28289098,-0.52311289,0.16910553,0.00000000
S,-0.5,1730147660647533568,,0.99979478,-0.01974919,0.04330087,0.09086541,-0.05291399,0.04531126,0.00100019,-0.00001962,0.00004339,0.00009288,-0.00005344,0.00004616,,,,,,,,,,,,,,,,,,,,,,,
S,-0.5,1730147660648526336,,0.99834865,-0.01689871,0.04685568,0.09433497,-0.05351118,0.04570358,0.00099765,-0.00001685,0.00004696,0.00009470,-0.00005175,0.00004516,,,,,,,,,,,,,,,,,,,,,,,
S,-0.5,1730147660649259264,,,,,,,,,,,,,,0.37459442,-0.59698850,0.41266277,0.57705575,-55.31960297,0.00752451,0.00525632,0.00790145,0.00510197,0.08871627,-0.06133903,0.04303731,9.83021259,-0.20853029,0.40065867,0.06810474,0.07511123,-0.12132204,-9.76210785,0.28364152,-0.52198070,0.16910553,0.00000000
S,-0.5,1730147660649523456,,0.99786174,-0.01678981,0.04775642,0.09184091,-0.04963729,0.04914049,0.00099749,-0.00001590,0.00004872,0.00009340,-0.00005053,0.00004864,,,,,,,,,,,,,,,,,,,,,,,
S,-0.5,1730147660650519552,,0.99812025,-0.01530617,0.04978693,0.08909629,-0.04827163,0.04420273,0.00099792,-0.00001554,0.00004970,0.00008880,-0.00004729,0.00004619,,,,,,,,,,,,,,,,,,,,,,,
S,-0.5,1730147660651255552,,,,,,,,,,,,,,0.37464893,-0.59690297,0.41271994,0.57706797,-55.31960297,0.00752451,0.00525632,0.00790145,0.00510197,0.09631535,-0.05413264,0.04204483,9.78365326,-0.16528638,0.46047840,0.02151012,0.11908938,-0.06042758,-9.76214314,0.28437576,-0.52090597,0.16910553,0.00000000
S,-0.5,1730147660651515904,,0.99874020,-0.01598724,0.04841125,0.09190686,-0.04655891,0.04602740,0.00099871,-0.00001539,0.00004931,0.00009052,-0.00004644,0.00004412,,,,,,,,,,,,,,,,,,,,,,,
S,-0.5,1730147660652511232,,0.99904615,-0.01706073,0.04857176,0.08847012,-0.04261941,0.04268149,0.00099919,-0.00001708,0.00004810,0.00008999,-0.00004279,0.00004387,,,,,,,,,,,,,,,,,,,,,,,
S,-0.5,1730147660653250816,,,,,,,,,,,,,,0.37470150,-0.59682041,0.41277972,0.57707632,-55.31960297,0.00752451,0.00525632,0.00790145,0.00510197,0.09041833,-0.04967337,0.04307486,9.78623581,-0.15240407,0.48743939,0.02406406,0.13270530,-0.03250766,-9.76217175,0.28510937,-0.51994705,0.16910553,0.00000000
S,-0.5,1730147660653506304,,0.99593753,-0.01783352,0.04954438,0.08222812,-0.03757433,0.03903827,0.00099660,-0.00001803,0.00004942,0.00008227,-0.00003724,0.00003864,,,,,,,,,,,,,,,,,,,,,,,
S,-0.5,1730147660654500608,,0.99655026,-0.01727717,0.04810490,0.07926759,-0.03351891,0.03901488,0.00099545,-0.00001762,0.00004868,0.00007782,-0.00003265,0.00003786,,,,,,,,,,,,,,,,,,,,,,,
S,-0.5,1730147660655245312,,,,,,,,,,,,,,0.37475124,-0.59674168,0.41283950,0.57708281,-55.31960297,0.00752451,0.00525632,0.00790145,0.00510197,0.09160642,-0.04517671,0.04075122,9.79868603,-0.16752157,0.47174886,0.03648853,0.11831152,-0.04732236,-9.76219749,0.28583309,-0.51907122,0.16910553,0.00000000
S,-0.5,1730147660655499008,,0.99572033,-0.01648121,0.04638368,0.07820246,-0.03045937,0.03583058,0.00099607,-0.00001645,0.00004624,0.00007745,-0.00002972,0.00003640,,,,,,,,,,,,,,,,,,,,,,,
S,-0.5,1730147660656496640,,0.99537349,-0.01707439,0.04513365,0.07816979,-0.02695500,0.03533285,0.00099517,-0.00001671,0.00004481,0.00007784,-0.00002662,0.00003441,,,,,,,,,,,,,,,,,,,,,,,
S,-0.5,1730147660657242624,,,,,,,,,,,,,,0.37479702,-0.59667087,0.41289628,0.57708555,-55.31960297,0.00752451,0.00525632,0.00790145,0.00510197,0.07943585,-0.03503656,0.03474046,9.76202393,-0.17283425,0.47735253,-0.00019360,0.11364681,-0.04098561,-9.76221752,0.28648105,-0.51833814,0.16910553,0.00000000
S,-0.5,1730147660657494016,,0.99731296,-0.01908869,0.04361302,0.08278470,-0.02327166,0.03521952,0.00099685,-0.00001891,0.00004349,0.00008194,-0.00002283,0.00003508,,,,,,,,,,,,,,,,,,,,,,,
S,-0.5,1730147660658490368,,0.99752164,-0.02038092,0.04004607,0.08073600,-0.01908182,0.03568216,0.00099810,-0.00002079,0.00004021,0.00008258,-0.00001867,0.00003556,,,,,,,,,,,,,,,,,,,,,,,
S,-0.5,1730147660659238400,,,,,,,,,,,,,,0.37483859,-0.59660900,0.41294983,0.57708424,-55.31960297,0.00752451,0.00525632,0.00790145,0.00510197,0.07945393,-0.02900452,0.03129069,9.75930691,-0.16389930,0.43946680,-0.00292492,0.12314370,-0.07829133,-9.76223183,0.28704301,-0.51775813,0.16910553,0.00000000
S,-0.5,1730147660659485952,,0.99790686,-0.02141343,0.03730054,0.08337916,-0.01472648,0.02909693,0.00099790,-0.00002164,0.00003666,0.00008225,-0.00001418,0.00003044,,,,,,,,,,,,,,,,,,,,,,,
S,-0.5,1730147660660480768,,0.99833703,-0.02326113,0.03809869,0.08501564,-0.01430850,0.02522449,0.00099838,-0.00002325,0.00003708,0.00008556,-0.00001300,0.00002383,,,,,,,,,,,,,,,,,,,,,,,
S,-0.5,1730147660661232384,,,,,,,,,,,,,,0.37487936,-0.59655070,0.41300669,0.57707733,-55.31960297,0.00752451,0.00525632,0.00790145,0.00510197,0.08419444,-0.02105734,0.03244303,9.78802776,-0.20385394,0.39432979,0.02578831,0.08372712,-0.12298656,-9.76223946,0.28758106,-0.51731634,0.16910553,0.00000000
S,-0.5,1730147660661474816,,0.99726242,-0.02062083,0.03889237,0.08308280,-0.01081699,0.02226719,0.00099759,-0.00002169,0.00003900,0.00008395,-0.00001132,0.00002157,,,,,,,,,,,,,,,,,,,,,,,
S,-0.5,1730147660662470400,,0.99709111,-0.02161638,0.03806064,0.08042241,-0.00765841,0.02520525,0.00099678,-0.00002060,0.00003846,0.00008029,-0.00000712,0.00002373,,,,,,,,,,,,,,,,,,,,,,,
S,-0.5,1730147660663233024,,,,,,,,,,,,,,0.37492266,-0.59649712,0.41306517,0.57706279,-55.31960297,0.00752451,0.00525632,0.00790145,0.00510197,0.08717692,-0.01538475,0.02071292,9.79077816,-0.22803916,0.36362901,0.02853584,0.05997182,-0.15338060,-9.76224232,0.28801098,-0.51700962,0.16910553,0.00000000
S,-0.5,1730147660663470592,,0.99732560,-0.02642410,0.03730855,0.07767009,-0.00180918,0.02628526,0.00099723,-0.00002587,0.00003718,0.00007732,-0.00000187,0.00002702,,,,,,,,,,,,,,,,,,,,,,,
S,-0.5,1730147660664470016,,0.99649942,-0.02705580,0.03665770,0.07461339,0.00045081,0.02499717,0.00099672,-0.00002847,0.00003654,0.00007429,0.00000190,0.00002558,,,,,,,,,,,,,,,,,,,,,,,
S,-0.5,1730147660665231616,,,,,,,,,,,,,,0.37496632,-0.59644973,0.41312161,0.57704306,-55.31960297,0.00752451,0.00525632,0.00790145,0.00510197,0.08190779,-0.00950764,0.02061110,9.77507496,-0.20197046,0.37721032,0.01282978,0.08635649,-0.13960427,-9.76224518,0.28832695,-0.51681459,0.16910553,0.00000000
S,-0.5,1730147660665468928,,0.99576890,-0.02866648,0.03399849,0.07768969,0.00368151,0.02881607,0.00099564,-0.00002858,0.00003427,0.00007616,0.00000381,0.00002771,,,,,,,,,,,,,,,,,,,,,,,
S,-0.5,1730147660666466816,,0.99382281,-0.03122521,0.03512456,0.07777937,0.00625530,0.02908528,0.00099394,-0.00003127,0.00003407,0.00007874,0.00000682,0.00003025,,,,,,,,,,,,,,,,,,,,,,,
S,-0.5,1730147660667228928,,,,,,,,,,,,,,0.37500298,-0.59640831,0.41317806,0.57702148,-55.31960297,0.00752451,0.00525632,0.00790145,0.00510197,0.07590993,-0.00048465,0.02245599,9.77452469,-0.27920765,0.35830402,0.01228905,0.00945827,-0.15845984,-9.76223564,0.28866592,-0.51676387,0.16910553,0.00000000
S,-0.5,1730147660667463936,,0.99221784,-0.03068100,0.03322773,0.07206734,0.00862196,0.02806586,0.00099189,-0.00003159,0.00003393,0.00007313,0.00000901,0.00002834,,,,,,,,,,,,,,,,,,,,,,,
S,-0.5,1730147660668460288,,0.99193168,-0.03156243,0.03150379,0.07105125,0.01457642,0.02197736,0.00099147,-0.00003123,0.00003121,0.00006942,0.00001425,0.00002276,,,,,,,,,,,,,,,,,,,,,,,
S,-0.5,1730147660669224704,,,,,,,,,,,,,,0.37503445,-0.59636992,0.41323867,0.57699734,-55.31960297,0.00752451,0.00525632,0.00790145,0.00510197,0.08035954,0.00442931,0.02713296,9.74726009,-0.30668548,0.33414933,-0.01496029,-0.01761588,-0.18269774,-9.76222038,0.28906959,-0.51684707,0.16910553,0.00000000
S,-0.5,1730147660669455616,,0.99101520,-0.03262761,0.03218985,0.06987316,0.01777802,0.02132411,0.00099109,-0.00003271,0.00003152,0.00006976,0.00001909,0.00001950,,,,,,,,,,,,,,,,,,,,,,,
S,-0.5,1730147660670450176,,0.99357527,-0.03261846,0.03205102,0.06569032,0.02164093,0.02027264,0.00099282,-0.00003296,0.00003229,0.00006608,0.00002196,0.00002026,,,,,,,,,,,,,,,,,,,,,,,
S,-0.5,1730147660671218688,,,,,,,,,,,,,,0.37506273,-0.59633654,0.41329935,0.57696998,-55.31960297,0.00752451,0.00525632,0.00790145,0.00510197,0.07103491,0.01186120,0.01964010,9.72302723,-0.30624789,0.30610147,-0.03917122,-0.01679996,-0.21094820,-9.76219845,0.28944793,-0.51704967,0.16910553,0.00000000
S,-0.5,1730147660671443968,,0.99644792,-0.03333773,0.02769167,0.06248640,0.02139858,0.02108414,0.00099674,-0.00003320,0.00002844,0.00006174,0.00002267,0.00002060,,,,,,,,,,,,,,,,,,,,,,,
S,-0.5,1730147660672436736,,0.99563932,-0.03591279,0.02633006,0.05681350,0.02102897,0.01977615,0.00099670,-0.00003567,0.00002519,0.00005682,0.00002102,0.00002027,,,,,,,,,,,,,,,,,,,,,,,
S,-0.5,1730147660673210624,,,,,,,,,,,,,,0.37508699,-0.59631199,0.41335624,0.57693887,-55.31960297,0.00752451,0.00525632,0.00790145,0.00510197,0.06769257,0.01957146,0.01713675,9.73622322,-0.32321981,0.31670427,-0.02594852,-0.03348419,-0.20069170,-9.76217175,0.28973562,-0.51739597,0.16910553,0.00000000
S,-0.5,1730147660673428736,,0.99337089,-0.03471461,0.02701101,0.05814560,0.02562911,0.01740122,0.00099353,-0.00003575,0.00002645,0.00005610,0.00002468,0.00001742,,,,,,,,,,,,,,,,,,,,,,,
S,-0.5,1730147660674419968,,0.99305308,-0.03544543,0.02866464,0.05372326,0.02204693,0.01907824,0.00099239,-0.00003493,0.00002858,0.00005495,0.00002416,0.00001802,,,,,,,,,,,,,,,,,,,,,,,
S,-0.5,1730147660675207168,,,,,,,,,,,,,,0.37510681,-0.59629226,0.41341001,0.57690781,-55.31960297,0.00752451,0.00525632,0.00790145,0.00510197,0.05844163,0.01863226,0.01715309,9.77429485,-0.34984094,0.24702626,0.01215363,-0.05983600,-0.27077973,-9.76214123,0.29000494,-0.51780599,0.16910553,0.00000000
S,-0.5,1730147660675416576,,0.99397486,-0.03429655,0.02815276,0.05239146,0.02176769,0.01736953,0.00099371,-0.00003474,0.00002877,0.00005123,0.00002068,0.00001821,,,,,,,,,,,,,,,,,,,,,,,
S,-0.5,1730147660676412160,,0.99385524,-0.03696820,0.03036959,0.05119789,0.02682886,0.01427765,0.00099417,-0.00003612,0.00002980,0.00005099,0.00002582,0.00001430,,,,,,,,,,,,,,,,,,,,,,,
S,-0.5,1730147660677201920,,,,,,,,,,,,,,0.37512350,-0.59627575,0.41346031,0.57687801,-55.76351166,0.00752451,0.00525632,0.00790145,0.00510197,0.05656803,0.02177534,0.01489856,9.73200893,-0.34255922,0.28028291,-0.03010273,-0.05230099,-0.23795080,-9.76211166,0.29025823,-0.51823372,-0.27480316,0.00000000
S,-0.5,1730147660677406976,,0.99210465,-0.03859376,0.03292476,0.04852642,0.03071426,0.01618592,0.00099238,-0.00003915,0.00003317,0.00004863,0.00003162,0.00001486,,,,,,,,,,,,,,,,,,,,,,,
S,-0.5,1730147660678400768,,0.98911518,-0.04138112,0.03493369,0.04383845,0.02998781,0.01668370,0.00098910,-0.00004139,0.00003538,0.00004384,0.00003136,0.00001720,,,,,,,,,,,,,,,,,,,,,,,
S,-0.5,1730147660679195136,,,,,,,,,,,,,,0.37513918,-0.59626293,0.41350806,0.57684684,-55.76351166,0.00752451,0.00525632,0.00790145,0.00510197,0.05260807,0.02343372,0.01117651,9.74948120,-0.35418445,0.29228032,-0.01259899,-0.06372860,-0.22642684,-9.76208019,0.29045585,-0.51870716,-0.27480316,0.00000000
S,-0.5,1730147660679393792,,0.98793757,-0.04243709,0.03458905,0.03733162,0.03269097,0.01542965,0.00098720,-0.00004313,0.00003529,0.00003702,0.00003197,0.00001582,,,,,,,,,,,,,,,,,,,,,,,
S,-0.5,1730147660680385792,,0.98619086,-0.04418615,0.03571348,0.03364787,0.03346141,0.01257740,0.00098613,-0.00004420,0.00003540,0.00003225,0.00003418,0.00001270,,,,,,,,,,,,,,,,,,,,,,,
S,-0.5,1730147660681186560,,,,,,,,,,,,,,0.37515029,-0.59625441,0.41355371,0.57681566,-55.76351166,0.00752451,0.00525632,0.00790145,0.00510197,0.04545712,0.02896983,0.01408167,9.69976807,-0.40592012,0.34697872,-0.06227779,-0.11526841,-0.17226869,-9.76204586,0.29065171,-0.51924741,-0.27480316,0.00000000
S,-0.5,1730147660681380352,,0.98585963,-0.04322390,0.03590584,0.03021333,0.03584984,0.01302913,0.00098536,-0.00004396,0.00003623,0.00002966,0.00003566,0.00001204,,,,,,,,,,,,,,,,,,,,,,,
S,-0.5,1730147660682374144,,0.98576474,-0.04438178,0.03379401,0.03205027,0.03777715,0.01311935,0.00098568,-0.00004387,0.00003424,0.00003062,0.00003819,0.00001325,,,,,,,,,,,,,,,,,,,,,,,
S,-0.5,1730147660683179776,,,,,,,,,,,,,,0.37515455,-0.59625214,0.41359505,0.57678556,-55.76351166,0.00752451,0.00525632,0.00790145,0.00510197,0.03386323,0.03179516,0.00957744,9.67066383,-0.43349555,0.34715194,-0.09134293,-0.14265409,-0.17271221,-9.76200676,0.29084146,-0.51986414,-0.27480316,0.00000000
S,-0.5,1730147660683369216,,0.98588419,-0.04734547,0.03205563,0.03151369,0.03881002,0.01421871,0.00098583,-0.00004718,0.00003170,0.00003220,0.00003924,0.00001405,,,,,,,,,,,,,,,,,,,,,,,
S,-0.5,1730147660684363264,,0.98917818,-0.04594653,0.03160770,0.03098526,0.03944200,0.01440318,0.00098862,-0.00004714,0.00003114,0.00003091,0.00003966,0.00001472,,,,,,,,,,,,,,,,,,,,,,,
S,-0.5,1730147660685175296,,,,,,,,,,,,,,0.37515461,-0.59625518,0.41363266,0.57675546,-55.76351166,0.00752451,0.00525632,0.00790145,0.00510197,0.03224053,0.03580052,0.01012774,9.66618443,-0.43017071,0.33577141,-0.09578228,-0.13917157,-0.18477097,-9.76196671,0.29099914,-0.52054238,-0.27480316,0.00000000
S,-0.5,1730147660685358592,,0.99180347,-0.04396772,0.03075061,0.02852743,0.03878770,0.01651578,0.00099238,-0.00004388,0.00003076,0.00002881,0.00003911,0.00001619,,,,,,,,,,,,,,,,,,,,,,,
S,-0.5,1730147660686352896,,0.99168730,-0.04343850,0.03280655,0.02551519,0.03488356,0.01268172,0.00099254,-0.00004290,0.00003216,0.00002528,0.00003538,0.00001405,,,,,,,,,,,,,,,,,,,,,,,
S,-0.5,1730147660687171584,,,,,,,,,,,,,,0.37515256,-0.59625959,0.41367152,0.57672435,-55.76351166,0.00752451,0.00525632,0.00790145,0.00510197,0.03252773,0.03726924,0.01160059,9.69502735,-0.46232602,0.30533749,-0.06689453,-0.17114848,-0.21593708,-9.76192188,0.29117754,-0.52127457,-0.27480316,0.00000000
S,-0.5,1730147660687349248,,0.99252874,-0.04442753,0.03539193,0.02034062,0.03533623,0.00875930,0.00099234,-0.00004408,0.00003558,0.00002032,0.00003401,0.00000825,,,,,,,,,,,,,,,,,,,,,,,
S,-0.5,1730147660688344832,,0.99502093,-0.04383683,0.03667922,0.01850814,0.03591958,0.00372769,0.00099484,-0.00004426,0.00003727,0.00001719,0.00003596,0.00000339,,,,,,,,,,,,,,,,,,,,,,,
S,-0.5,1730147660689166336,,,,,,,,,,,,,,0.37514925,-0.59626406,0.41370857,0.57669532,-55.76351166,0.00752451,0.00525632,0.00790145,0.00510197,0.02689739,0.03299791,0.01093177,9.73353195,-0.42075053,0.31538054,-0.02834702,-0.12938413,-0.20659754,-9.76187897,0.29136640,-0.52197808,-0.27480316,0.00000000
S,-0.5,1730147660689339648,,0.99619985,-0.04368197,0.03825354,0.01550404,0.03655512,0.00218567,0.00099678,-0.00004352,0.00003838,0.00001547,0.00003663,0.00000086,,,,,,,,,,,,,,,,,,,,,,,
S,-0.5,1730147660690333696,,0.99778593,-0.04461149,0.03867258,0.02027607,0.03811351,0.00426856,0.00099787,-0.00004439,0.00003910,0.00001845,0.00003803,0.00000340,,,,,,,,,,,,,,,,,,,,,,,
S,-0.5,1730147660691159552,,,,,,,,,,,,,,0.37514588,-0.59627235,0.41373757,0.57666814,-55.76351166,0.00752451,0.00525632,0.00790145,0.00510197,0.01881121,0.03357098,0.00027432,9.75600815,-0.43402839,0.36547846,-0.00583267,-0.14257658,-0.15716219,-9.76184082,0.29145181,-0.52264065,-0.27480316,0.00000000
S,-0.5,1730147660691329792,,0.99842089,-0.04366073,0.04112054,0.01622359,0.03619305,0.00426665,0.00099881,-0.00004413,0.00004081,0.00001848,0.00003704,0.00000493,,,,,,,,,,,,,,,,,,,,,,,
S,-0.5,1730147660692325376,,0.99889702,-0.04211372,0.04172634,0.00887189,0.03950254,0.00681835,0.00099901,-0.00004209,0.00004240,0.00000892,0.00003829,0.00000635,,,,,,,,,,,,,,,,,,,,,,,
S,-0.5,1730147660693154048,,,,,,,,,,,,,,0.37514299,-0.59628493,0.41376191,0.57663959,-55.76351166,0.00752451,0.00525632,0.00790145,0.00510197,0.02007007,0.03564594,0.00028025,9.78579140,-0.43535167,0.38341734,0.02398682,-0.14391443,-0.13990977,-9.76180458,0.29143724,-0.52332711,-0.27480316,0.00000000
S,-0.5,1730147660693320192,,0.99925679,-0.04092582,0.04266418,0.00903803,0.03655249,0.00183900,0.00099934,-0.00004065,0.00004269,0.00000667,0.00003814,0.00000356,,,,,,,,,,,,,,,,,,,,,,,
S,-0.5,1730147660694313984,,0.99897921,-0.03946732,0.04346475,0.00657557,0.03717542,-0.00008654,0.00099914,-0.00003935,0.00004362,0.00000708,0.00003612,-0.00000132,,,,,,,,,,,,,,,,,,,,,,,
S,-0.5,1730147660695147520,,,,,,,,,,,,,,0.37513629,-0.59629911,0.41378522,0.57661259,-55.76351166,0.00752451,0.00525632,0.00790145,0.00510197,0.01053494,0.03590322,0.00323513,9.79696655,-0.41278452,0.41575834,0.03520012,-0.12132892,-0.10827628,-9.76176643,0.29145560,-0.52403462,-0.27480316,0.00000000
S,-0.5,1730147660695307264,,0.99822789,-0.03763589,0.04389054,0.00158123,0.03452983,-0.00450611,0.00099828,-0.00003750,0.00004407,0.00000170,0.00003521,-0.00000432,,,,,,,,,,,,,,,,,,,,,,,
S,-0.5,1730147660696299520,,0.99685228,-0.03662160,0.04532152,-0.00158733,0.03336616,-0.00891393,0.00099686,-0.00003622,0.00004520,-0.00000260,0.00003274,-0.00000952,,,,,,,,,,,,,,,,,,,,,,,
S,-0.5,1730147660697139200,,,,,,,,,,,,,,0.37512797,-0.59631586,0.41380346,0.57658762,-55.76351166,0.00752451,0.00525632,0.00790145,0.00510197,0.00869310,0.03373650,-0.00444069,9.79825783,-0.38592887,0.42774311,0.03652668,-0.09449571,-0.09697691,-9.76173115,0.29143316,-0.52472001,-0.27480316,0.00000000
S,-0.5,1730147660697291008,,0.99629557,-0.03625244,0.04607850,-0.00233298,0.03437842,-0.01070483,0.00099596,-0.00003600,0.00004640,-0.00000321,0.00003382,-0.00001178,,,,,,,,,,,,,,,,,,,,,,,
S,-0.5,1730147660698281728,,0.99541020,-0.03553433,0.04783544,-0.00274802,0.03346211,-0.00977548,0.00099539,-0.00003555,0.00004776,-0.00000291,0.00003395,-0.00001051,,,,,,,,,,,,,,,,,,,,,,,
S,-0.5,1730147660699129088,,,,,,,,,,,,,,0.37512192,-0.59633642,0.41381261,0.57656372,-55.76351166,0.00752451,0.00525632,0.00790145,0.00510197,-0.00098414,0.03034876,-0.01263888,9.77588749,-0.35522142,0.44322959,0.01418591,-0.06395906,-0.08211830,-9.76170158,0.29126236,-0.52534789,-0.27480316,0.00000000
S,-0.5,1730147660699283712,,0.99419320,-0.03527661,0.04509923,-0.00371504,0.03554948,-0.01274648,0.00099413,-0.00003509,0.00004616,-0.00000367,0.00003488,-0.00001191,,,,,,,,,,,,,,,,,,,,,,,
S,-0.5,1730147660700284928,,0.99282950,-0.03186524,0.04528987,-0.00473552,0.03107707,-0.01367411,0.00099269,-0.00003240,0.00004438,-0.00000486,0.00003255,-0.00001445,,,,,,,,,,,,,,,,,,,,,,,
S,-0.5,1730147660701129728,,,,,,,,,,,,,,0.37511596,-0.59636009,0.41381568,0.57654077,-55.76351166,0.00752451,0.00525632,0.00790145,0.00510197,-0.00129270,0.03156410,-0.01363342,9.76148033,-0.34860086,0.46833804,-0.00019550,-0.05759355,-0.05761489,-9.76167583,0.29100731,-0.52595294,-0.27480316,0.00000000
S,-0.5,1730147660701285376,,0.99420124,-0.02844519,0.04683129,-0.00347492,0.03084078,-0.01525644,0.00099352,-0.00002798,0.00004661,-0.00000403,0.00002946,-0.00001526,,,,,,,,,,,,,,,,,,,,,,,
S,-0.5,1730147660702285056,,0.99410409,-0.02861684,0.04855594,-0.00424100,0.03179796,-0.01757806,0.00099456,-0.00002750,0.00004873,-0.00000370,0.00003155,-0.00001766,,,,,,,,,,,,,,,,,,,,,,,
S,-0.5,1730147660703128320,,,,,,,,,,,,,,0.37511083,-0.59638518,0.41381663,0.57651746,-55.76351166,0.00752451,0.00525632,0.00790145,0.00510197,-0.00324067,0.03016738,-0.01757029,9.73496151,-0.31776303,0.43525910,-0.02669048,-0.02705798,-0.09129471,-9.76165199,0.29070505,-0.52655381,-0.27480316,0.00000000
S,-0.5,1730147660703283968,,0.99404317,-0.02887264,0.04729861,-0.00872230,0.03284169,-0.01732909,0.00099402,-0.00002888,0.00004808,-0.00000815,0.00003296,-0.00001811,,,,,,,,,,,,,,,,,,,,,,,
S,-0.5,1730147660704281856,,0.99279988,-0.02705133,0.04615805,-0.00979712,0.03276823,-0.02065996,0.00099301,-0.00002746,0.00004597,-0.00001103,0.00003311,-0.00001998,,,,,,,,,,,,,,,,,,,,,,,
S,-0.5,1730147660705125632,,,,,,,,,,,,,,0.37510803,-0.59641123,0.41381478,0.57649368,-55.76351166,0.00752451,0.00525632,0.00790145,0.00510197,-0.00208330,0.02916213,-0.02077894,9.75328636,-0.26965165,0.47791153,-0.00834560,0.02068147,-0.04921979,-9.76163197,0.29033312,-0.52713132,-0.27480316,0.00000000
S,-0.5,1730147660705278976,,0.99613941,-0.02660065,0.04709699,-0.00771142,0.02789675,-0.01806344,0.00099514,-0.00002610,0.00004656,-0.00000843,0.00002876,-0.00001960,,,,,,,,,,,,,,,,,,,,,,,
S,-0.5,1730147660706275072,,0.99709779,-0.02780166,0.04848462,-0.00698848,0.02844610,-0.01696278,0.00099799,-0.00002744,0.00004853,-0.00000646,0.00002680,-0.00001634,,,,,,,,,,,,,,,,,,,,,,,
S,-0.5,1730147660707121152,,,,,,,,,,,,,,0.37510487,-0.59643972,0.41380963,0.57646996,-55.76351166,0.00752451,0.00525632,0.00790145,0.00510197,-0.00941102,0.03072710,-0.02309454,9.73806572,-0.26932514,0.45076331,-0.02354717,0.02058566,-0.07694939,-9.76161289,0.28991079,-0.52771270,-0.27480316,0.00000000
S,-0.5,1730147660707270400,,0.99632943,-0.02713580,0.05014484,-0.00462041,0.02286537,-0.02079943,0.00099677,-0.00002764,0.00005028,-0.00000482,0.00002405,-0.00001975,,,,,,,,,,,,,,,,,,,,,,,
S,-0.5,1730147660708264704,,0.99728286,-0.02661547,0.04977686,-0.00415411,0.02376661,-0.02089298,0.00099687,-0.00002650,0.00005037,-0.00000349,0.00002183,-0.00002210,,,,,,,,,,,,,,,,,,,,,,,
S,-0.5,1730147660709114880,,,,,,,,,,,,,,0.37510148,-0.59646708,0.41380316,0.57644850,-55.76351166,0.00752451,0.00525632,0.00790145,0.00510197,-0.00483867,0.02440894,-0.01945529,9.78690624,-0.26909703,0.47592860,0.02530956,0.02040628,-0.05231786,-9.76159668,0.28950331,-0.52824646,-0.27480316,0.00000000
S,-0.5,1730147660709258240,,0.99686635,-0.02703582,0.05054016,-0.00725532,0.02246463,-0.02264038,0.00099725,-0.00002679,0.00005028,-0.00000654,0.00002299,-0.00002235,,,,,,,,,,,,,,,,,,,,,,,
S,-0.5,1730147660710251264,,0.99715084,-0.02619672,0.05211427,-0.00733546,0.01939418,-0.02267950,0.00099697,-0.00002648,0.00005207,-0.00000831,0.00001954,-0.00002323,,,,,,,,,,,,,,,,,,,,,,,
S,-0.5,1730147660711106816,,,,,,,,,,,,,,0.37510327,-0.59649020,0.41379613,0.57642841,-55.76351166,0.00752451,0.00525632,0.00790145,0.00510197,-0.00186780,0.01943975,-0.02521626,9.77590752,-0.25985527,0.49398056,0.01432133,0.02921551,-0.03469262,-9.76158619,0.28907079,-0.52867317,-0.27480316,0.00000000
S,-0.5,1730147660711246080,,0.99881798,-0.02664000,0.05380625,-0.00320609,0.01786230,-0.02017628,0.00099861,-0.00002629,0.00005400,-0.00000398,0.00001716,-0.00002064,,,,,,,,,,,,,,,,,,,,,,,
S,-0.5,1730147660712240128,,0.99882472,-0.02627380,0.05232191,-0.00016394,0.01905444,-0.02123867,0.00099935,-0.00002648,0.00005313,0.00000060,0.00001835,-0.00002025,,,,,,,,,,,,,,,,,,,,,,,
S,-0.5,1730147660713106944,,,,,,,,,,,,,,0.37510803,-0.59651309,0.41378516,0.57640964,-55.76351166,0.00752451,0.00525632,0.00790145,0.00510197,-0.00669079,0.01715091,-0.02634762,9.77690220,-0.25970864,0.51064152,0.01531982,0.02886313,-0.01838505,-9.76158237,0.28857177,-0.52902657,-0.27480316,0.00000000
S,-0.5,1730147660713240320,,0.99978262,-0.02189631,0.05305912,0.00138117,0.02164439,-0.01447123,0.00099961,-0.00002258,0.00005245,0.00000207,0.00002155,-0.00001604,,,,,,,,,,,,,,,,,,,,,,,
S,-0.5,1730147660714239488,,0.99997735,-0.02054157,0.05444730,-0.00153932,0.02047173,-0.01086029,0.00100025,-0.00001939,0.00005443,-0.00000052,0.00002151,-0.00000936,,,,,,,,,,,,,,,,,,,,,,,
S,-0.5,1730147660715105536,,,,,,,,,,,,,,0.37511417,-0.59653378,0.41377527,0.57639134,-55.76351166,0.00752451,0.00525632,0.00790145,0.00510197,0.00221501,0.01596351,-0.02336788,9.80031586,-0.25969434,0.52103007,0.03873634,0.02839416,-0.00831902,-9.76157951,0.28808850,-0.52934909,-0.27480316,0.00000000
S,-0.5,1730147660715237888,,0.99808753,-0.02133053,0.05480165,-0.00044186,0.01011396,-0.01283653,0.00099849,-0.00002076,0.00005518,-0.00000157,0.00001162,-0.00001133,,,,,,,,,,,,,,,,,,,,,,,
S,-0.5,1730147660716235520,,0.99848926,-0.01753644,0.05322255,0.00133096,0.00813150,-0.01531348,0.00099781,-0.00001848,0.00005362,0.00000136,0.00000519,-0.00001549,,,,,,,,,,,,,,,,,,,,,,,
S,-0.5,1730147660717102592,,,,,,,,,,,,,,0.37511823,-0.59655070,0.41377211,0.57637346,-55.76351166,0.00752451,0.00525632,0.00790145,0.00510197,0.00110040,0.01912249,-0.01248124,9.80907154,-0.19019885,0.53377342,0.04750061,0.09753786,0.00408059,-9.76157093,0.28773671,-0.52969283,-0.27480316,0.00000000
S,-0.5,1730147660717232384,,0.99687773,-0.01738855,0.05642538,0.00270503,0.00847011,-0.01178933,0.00099730,-0.00001621,0.00005534,0.00000302,0.00000778,-0.00001322,,,,,,,,,,,,,,,,,,,,,,,
S,-0.5,1730147660718228224,,0.99638426,-0.01614869,0.05557372,0.00453154,0.00671176,-0.01279357,0.00099596,-0.00001633,0.00005675,0.00000464,0.00000714,-0.00001149,,,,,,,,,,,,,,,,,,,,,,,
S,-0.5,1730147660719097600,,,,,,,,,,,,,,0.37512386,-0.59656268,0.41376811,0.57636023,-54.88097763,0.00752451,0.00525632,0.00790145,0.00510197,0.00297544,0.00280800,-0.01861153,9.78521919,-0.18119314,0.52584946,0.02365017,0.10623780,-0.00405908,-9.76156902,0.28743094,-0.52990854,0.60773087,0.00000000
S,-0.5,1730147660719223552,,0.99799788,-0.01572091,0.05532208,0.00533866,0.00586421,-0.00796578,0.00099755,-0.00001540,0.00005510,0.00000577,0.00000546,-0.00000916,,,,,,,,,,,,,,,,,,,,,,,
S,-0.5,1730147660720217856,,0.99872655,-0.01596905,0.05522075,0.00718142,0.00346581,-0.00536424,0.00099911,-0.00001579,0.00005516,0.00000710,0.00000363,-0.00000430,,,,,,,,,,,,,,,,,,,,,,,
S,-0.5,1730147660721091328,,,,,,,,,,,,,,0.37513462,-0.59657001,0.41376227,0.57634985,-54.88097763,0.00752451,0.00525632,0.00790145,0.00510197,0.00625432,0.00475230,-0.01460836,9.76704121,-0.16011339,0.55650681,0.00546741,0.12698847,0.02652234,-9.76157379,0.28710186,-0.52998447,0.60773087,0.00000000
S,-0.5,1730147660721211392,,0.99858737,-0.01611658,0.05450993,0.00605308,0.00363157,0.00038339,0.00099884,-0.00001617,0.00005461,0.00000684,0.00000284,0.00000017,,,,,,,,,,,,,,,,,,,,,,,
S,-0.5,1730147660722204160,,0.99864668,-0.01568265,0.05390951,0.01023378,0.00298092,0.00040536,0.00099859,-0.00001581,0.00005379,0.00000912,0.00000315,0.00000223,,,,,,,,,,,,,,,,,,,,,,,
S,-0.5,1730147660723083264,,,,,,,,,,,,,,0.37514418,-0.59657347,0.41376114,0.57634085,-54.88097763,0.00752451,0.00525632,0.00790145,0.00510197,0.00872079,0.00124508,-0.00741920,9.79790020,-0.15482935,0.54092413,0.03632259,0.13205013,0.01087713,-9.76157761,0.28687948,-0.53004700,0.60773087,0.00000000
S,-0.5,1730147660723200000,,1.00243723,-0.01549535,0.05280792,0.01591267,0.00100368,0.00113334,0.00100177,-0.00001539,0.00005282,0.00001621,0.00000116,0.00000101,,,,,,,,,,,,,,,,,,,,,,,
S,-0.5,1730147660724195072,,1.00528693,-0.01489182,0.05161608,0.01767563,-0.00283524,0.00018393,0.00100598,-0.00001494,0.00005148,0.00001916,-0.00000277,0.00000059,,,,,,,,,,,,,,,,,,,,,,,
S,-0.5,1730147660725082624,,,,,,,,,,,,,,0.37515196,-0.59657210,0.41376466,0.57633466,-54.88097763,0.00752451,0.00525632,0.00790145,0.00510197,0.01073228,0.00076519,-0.00088813,9.79283905,-0.15502952,0.52752292,0.03126049,0.13175844,-0.00254971,-9.76157856,0.28678796,-0.53007263,0.60773087,0.00000000
S,-0.5,1730147660725194752,,1.00463200,-0.01580879,0.05354370,0.02116979,-0.00367704,0.00111618,0.00100566,-0.00001545,0.00005281,0.00002110,-0.00000475,0.00000064,,,,,,,,,,,,,,,,,,,,,,,
S,-0.5,1730147660726193408,,1.00298595,-0.01680717,0.05182740,0.02240434,-0.00404556,0.00588209,0.00100308,-0.00001692,0.00005275,0.00002329,-0.00000425,0.00000531,,,,,,,,,,,,,,,,,,,,,,,
S,-0.5,1730147660727080960,,,,,,,,,,,,,,0.37516326,-0.59656560,0.41377190,0.57632881,-54.88097763,0.00752451,0.00525632,0.00790145,0.00510197,0.02078022,-0.00515383,-0.00253087,9.86525154,-0.14652905,0.50486261,0.10367012,0.14020908,-0.02517593,-9.76158142,0.28673813,-0.53003854,0.60773087,0.00000000
S,-0.5,1730147660727192064,,1.00414884,-0.01781041,0.05068564,0.02579001,-0.00734017,0.00592459,0.00100341,-0.00001795,0.00005035,0.00002557,-0.00000686,0.00000743,,,,,,,,,,,,,,,,,,,,,,,
S,-0.5,1730147660728189696,,1.00143600,-0.01779618,0.05082983,0.02794952,-0.00774919,0.01059008,0.00100230,-0.00001812,0.00005044,0.00002863,-0.00000872,0.00000976,,,,,,,,,,,,,,,,,,,,,,,
S,-0.5,1730147660729078016,,,,,,,,,,,,,,0.37517941,-0.59655368,0.41378275,0.57632279,-54.88097763,0.00752451,0.00525632,0.00790145,0.00510197,0.02490951,-0.00663328,0.00219389,9.83682060,-0.16590928,0.51732880,0.07523346,0.12080146,-0.01260841,-9.76158714,0.28671074,-0.52993721,0.60773087,0.00000000
S,-0.5,1730147660729187072,,1.00223088,-0.01887458,0.05183540,0.03298005,-0.01107294,0.00830892,0.00100122,-0.00001867,0.00005170,0.00003275,-0.00001060,0.00001021,,,,,,,,,,,,,,,,,,,,,,,
S,-0.5,1730147660730183680,,1.00086057,-0.01864732,0.05097235,0.03313135,-0.01238569,0.01085001,0.00100136,-0.00001903,0.00005145,0.00003471,-0.00001321,0.00000966,,,,,,,,,,,,,,,,,,,,,,,
S,-0.5,1730147660731073792,,,,,,,,,,,,,,0.37519699,-0.59653640,0.41379794,0.57631832,-54.88097763,0.00752451,0.00525632,0.00790145,0.00510197,0.03025211,-0.01111030,0.00663691,9.82919693,-0.17767973,0.49464786,0.06760216,0.10908784,-0.03513205,-9.76159477,0.28676757,-0.52977991,0.60773087,0.00000000
S,-0.5,1730147660731179520,,1.00062847,-0.01899039,0.04910396,0.03424654,-0.01286367,0.01762502,0.00100023,-0.00001886,0.00004917,0.00003409,-0.00001319,0.00001720,,,,,,,,,,,,,,,,,,,,,,,
S,-0.5,1730147660732174336,,1.00153232,-0.02036913,0.05091229,0.03252919,-0.01705939,0.02188149,0.00100129,-0.00002023,0.00004999,0.00003320,-0.00001645,0.00002326,,,,,,,,,,,,,,,,,,,,,,,
S,-0.5,1730147660733068032,,,,,,,,,,,,,,0.37521857,-0.59651351,0.41381606,0.57631499,-54.88097763,0.00752451,0.00525632,0.00790145,0.00510197,0.03632239,-0.01559187,0.00654318,9.82001209,-0.18663841,0.50454259,0.05840683,0.10022271,-0.02499586,-9.76160526,0.28686112,-0.52953845,0.60773087,0.00000000
S,-0.5,1730147660733168640,,1.00227380,-0.01996776,0.05034000,0.03408827,-0.01693935,0.02231533,0.00100243,-0.00002048,0.00005102,0.00003326,-0.00001830,0.00002359,,,,,,,,,,,,,,,,,,,,,,,
S,-0.5,1730147660734161920,,1.00141716,-0.02102573,0.05124980,0.03176934,-0.02042872,0.01693420,0.00100181,-0.00002071,0.00005090,0.00003269,-0.00001976,0.00001805,,,,,,,,,,,,,,,,,,,,,,,
S,-0.5,1730147660735060736,,,,,,,,,,,,,,0.37523922,-0.59648472,0.41383806,0.57631552,-54.88097763,0.00750287,0.00527652,0.00789996,0.00511816,0.03481345,-0.01883594,0.02014565,9.81934357,-0.19837223,0.49022198,0.05772781,0.08871157,-0.03900117,-9.76161575,0.28708380,-0.52922314,0.60773087,0.00000000
S,-0.5,1730147660735156736,,1.00007427,-0.02154270,0.05073831,0.03149271,-0.02011826,0.01557922,0.00100005,-0.00002179,0.00005112,0.00003080,-0.00002129,0.00001411,,,,,,,,,,,,,,,,,,,,,,,
S,-0.5,1730147660736150784,,0.99910337,-0.02561955,0.05285060,0.03055404,-0.02114055,0.01863714,0.00099885,-0.00002504,0.00005230,0.00003064,-0.00002086,0.00001765,,,,,,,,,,,,,,,,,,,,,,,
S,-0.5,1730147660737054464,,,,,,,,,,,,,,0.37525821,-0.59645271,0.41386074,0.57632005,-54.88097763,0.00750287,0.00527652,0.00789996,0.00511816,0.03430420,-0.02214323,0.01493096,9.82438946,-0.20304956,0.49918020,0.06276226,0.08434002,-0.02966213,-9.76162720,0.28738958,-0.52884233,0.60773087,0.00000000
S,-0.5,1730147660737151232,,0.99852866,-0.02546186,0.05090573,0.03320211,-0.02294874,0.01696221,0.00099832,-0.00002679,0.00005193,0.00003242,-0.00002295,0.00001824,,,,,,,,,,,,,,,,,,,,,,,
S,-0.5,1730147660738150912,,0.99631637,-0.02361950,0.05215885,0.03007858,-0.02427247,0.01941524,0.00099654,-0.00002390,0.00005131,0.00003149,-0.00002461,0.00001844,,,,,,,,,,,,,,,,,,,,,,,
S,-0.5,1730147660739053568,,,,,,,,,,,,,,0.37527895,-0.59642106,0.41388020,0.57632536,-54.88097763,0.00750287,0.00527652,0.00789996,0.00511816,0.03225378,-0.02324270,0.01453122,9.79539394,-0.24559461,0.51292729,0.03375053,0.04204737,-0.01549095,-9.76164341,0.28764197,-0.52841824,0.60773087,0.00000000
S,-0.5,1730147660739149824,,0.99682498,-0.02482295,0.05354641,0.02445688,-0.02407360,0.02078823,0.00099603,-0.00002402,0.00005369,0.00002448,-0.00002453,0.00002132,,,,,,,,,,,,,,,,,,,,,,,
S,-0.5,1730147660740147968,,0.99728775,-0.02756235,0.05419566,0.02354921,-0.02059583,0.01896713,0.00099737,-0.00002745,0.00005452,0.00002192,-0.00002116,0.00001974,,,,,,,,,,,,,,,,,,,,,,,
S,-0.5,1730147660741050624,,,,,,,,,,,,,,0.37530023,-0.59638816,0.41389850,0.57633239,-54.88097763,0.00750287,0.00527652,0.00789996,0.00511816,0.03310626,-0.02699424,0.01531737,9.77267361,-0.23441879,0.50319850,0.01101303,0.05347969,-0.02474874,-9.76166058,0.28789848,-0.52794725,0.60773087,0.00000000
S,-0.5,1730147660741145344,,0.99736136,-0.02874857,0.05367275,0.02378087,-0.02031946,0.01776461,0.00099750,-0.00002940,0.00005397,0.00002345,-0.00001926,0.00001740,,,,,,,,,,,,,,,,,,,,,,,
S,-0.5,1730147660742141696,,0.99638170,-0.03112738,0.05339481,0.02225351,-0.01872703,0.01975151,0.00099658,-0.00003107,0.00005328,0.00002260,-0.00001893,0.00001901,,,,,,,,,,,,,,,,,,,,,,,
S,-0.5,1730147660743046144,,,,,,,,,,,,,,0.37531838,-0.59635633,0.41391486,0.57634175,-54.88097763,0.00750287,0.00527652,0.00789996,0.00511816,0.02354194,-0.02355111,0.01661602,9.78081608,-0.26916882,0.53465503,0.01913738,0.01901209,0.00718528,-9.76167870,0.28818092,-0.52746975,0.60773087,0.00000000
S,-0.5,1730147660743137280,,0.99524945,-0.03262953,0.05514418,0.02066740,-0.01736057,0.02101826,0.00099514,-0.00003311,0.00005474,0.00002047,-0.00001710,0.00002142,,,,,,,,,,,,,,,,,,,,,,,
S,-0.5,1730147660744131840,,0.99354923,-0.03347320,0.05626282,0.01973299,-0.01438321,0.01817748,0.00099350,-0.00003380,0.00005662,0.00001940,-0.00001449,0.00001910,,,,,,,,,,,,,,,,,,,,,,,
S,-0.5,1730147660745039872,,,,,,,,,,,,,,0.37533253,-0.59632772,0.41392991,0.57635134,-54.88097763,0.00750287,0.00527652,0.00789996,0.00511816,0.02422201,-0.02131511,0.01588872,9.77314186,-0.30472106,0.52248734,0.01144981,-0.01624781,-0.00455827,-9.76169205,0.28847325,-0.52704561,0.60773087,0.00000000
S,-0.5,1730147660745125632,,0.99294358,-0.03399116,0.05521943,0.01848369,-0.01036105,0.01936590,0.00099251,-0.00003417,0.00005577,0.00001841,-0.00001014,0.00001825,,,,,,,,,,,,,,,,,,,,,,,
S,-0.5,1730147660746118400,,0.99384087,-0.03557405,0.05476815,0.01416894,-0.01081539,0.01730296,0.00099349,-0.00003545,0.00005452,0.00001456,-0.00000945,0.00001806,,,,,,,,,,,,,,,,,,,,,,,
S,-0.5,1730147660747032064,,,,,,,,,,,,,,0.37534475,-0.59630162,0.41394529,0.57635933,-54.88097763,0.00750287,0.00527652,0.00789996,0.00511816,0.02101515,-0.01687592,0.01597782,9.74288464,-0.33144400,0.55521941,-0.01881790,-0.04268393,0.02853334,-9.76170254,0.28876007,-0.52668607,0.60773087,0.00000000
S,-0.5,1730147660747113472,,0.99206716,-0.03643120,0.05428958,0.01434752,-0.01076058,0.01413335,0.00099268,-0.00003678,0.00005423,0.00001294,-0.00001092,0.00001405,,,,,,,,,,,,,,,,,,,,,,,
S,-0.5,1730147660748107776,,0.99361193,-0.03861683,0.05221580,0.01607985,-0.01427086,0.01190643,0.00099277,-0.00003849,0.00005244,0.00001582,-0.00001362,0.00001130,,,,,,,,,,,,,,,,,,,,,,,
S,-0.5,1730147660749025536,,,,,,,,,,,,,,0.37535289,-0.59627998,0.41395983,0.57636601,-54.88097763,0.00750287,0.00527652,0.00789996,0.00511816,0.01617248,-0.01183926,0.01493704,9.74276066,-0.34765872,0.53463954,-0.01894951,-0.05861652,0.00822347,-9.76171017,0.28904220,-0.52641606,0.60773087,0.00000000
S,-0.5,1730147660749101824,,0.99320787,-0.04140298,0.04968240,0.01692866,-0.01001149,0.01301588,0.00099377,-0.00004159,0.00004948,0.00001733,-0.00001190,0.00001211,,,,,,,,,,,,,,,,,,,,,,,
S,-0.5,1730147660750094848,,0.99361342,-0.04162103,0.04754406,0.01604465,-0.00567203,0.01011471,0.00099341,-0.00004247,0.00004713,0.00001648,-0.00000510,0.00001099,,,,,,,,,,,,,,,,,,,,,,,
S,-0.5,1730147660751023360,,,,,,,,,,,,,,0.37536201,-0.59626085,0.41397119,0.57637167,-54.88097763,0.00750287,0.00527652,0.00789996,0.00511816,0.01743921,-0.01600233,0.00818310,9.73571491,-0.37748078,0.51426113,-0.02600288,-0.08823046,-0.01189333,-9.76171780,0.28925031,-0.52615446,0.60773087,0.00000000
S,-0.5,1730147660751092736,,0.99727166,-0.03948871,0.04553411,0.01427602,-0.00608517,0.00776089,0.00099674,-0.00003995,0.00004522,0.00001432,-0.00000463,0.00000727,,,,,,,,,,,,,,,,,,,,,,,
S,-0.5,1730147660752089600,,0.99780941,-0.04030067,0.04305087,0.01560966,-0.00183173,0.00693627,0.00099888,-0.00003947,0.00004286,0.00001480,-0.00000274,0.00000634,,,,,,,,,,,,,,,,,,,,,,,
S,-0.5,1730147660753019648,,,,,,,,,,,,,,0.37537283,-0.59624410,0.41398180,0.57637435,-54.88097763,0.00750287,0.00527652,0.00789996,0.00511816,0.01809271,-0.00749137,0.00787596,9.74203396,-0.41647053,0.46215531,-0.01969242,-0.12708205,-0.06377986,-9.76172638,0.28938848,-0.52593517,0.60773087,0.00000000
S,-0.5,1730147660753085952,,0.99813986,-0.03999865,0.04056013,0.01308813,-0.00109544,0.00490648,0.00099825,-0.00004031,0.00004022,0.00001397,0.00000012,0.00000501,,,,,,,,,,,,,,,,,,,,,,,
S,-0.5,1730147660754081280,,0.99683708,-0.04086713,0.03757424,0.01191709,0.00142050,0.00485875,0.00099718,-0.00004061,0.00003732,0.00001133,0.00000120,0.00000422,,,,,,,,,,,,,,,,,,,,,,,
S,-0.5,1730147660755014656,,,,,,,,,,,,,,0.37538254,-0.59623170,0.41399267,0.57637304,-54.88097763,0.00750287,0.00527652,0.00789996,0.00511816,0.01642163,-0.00512276,0.00321783,9.79562950,-0.38711092,0.42033681,0.03389931,-0.09763268,-0.10548523,-9.76173019,0.28947824,-0.52582204,0.60773087,0.00000000
S,-0.5,1730147660755075840,,0.99755681,-0.04357327,0.03918932,0.00981988,0.00529871,0.00803356,0.00099701,-0.00004336,0.00003795,0.00000983,0.00000539,0.00000744,,,,,,,,,,,,,,,,,,,,,,,
S,-0.5,1730147660756069632,,0.99824494,-0.04093029,0.03993377,0.00650293,0.00154503,0.00322262,0.00099835,-0.00004227,0.00004031,0.00000644,0.00000346,0.00000511,,,,,,,,,,,,,,,,,,,,,,,
S,-0.5,1730147660757007616,,,,,,,,,,,,,,0.37539136,-0.59622347,0.41400123,0.57636964,-54.88097763,0.00750287,0.00527652,0.00789996,0.00511816,0.01294449,-0.00118896,0.00110230,9.77898598,-0.39827889,0.36602342,0.01725483,-0.10877442,-0.15974569,-9.76173115,0.28950447,-0.52576911,0.60773087,0.00000000
S,-0.5,1730147660757062656,,1.00094950,-0.04258350,0.03832883,0.00172082,0.00661013,0.00056474,0.00100068,-0.00004144,0.00003886,0.00000153,0.00000450,-0.00000048,,,,,,,,,,,,,,,,,,,,,,,
S,-0.5,1730147660758054912,,1.00041282,-0.04377884,0.03701833,0.00335686,0.00407500,-0.00000259,0.00100137,-0.00004409,0.00003675,0.00000154,0.00000615,-0.00000075,,,,,,,,,,,,,,,,,,,,,,,
S,-0.5,1730147660758999040,,,,,,,,,,,,,,0.37539676,-0.59621888,0.41400817,0.57636589,-55.21390915,0.00750287,0.00527652,0.00789996,0.00511816,0.00805528,0.00107480,0.00198827,9.79045963,-0.41454378,0.39532998,0.02872944,-0.12502035,-0.13044456,-9.76173019,0.28952342,-0.52577454,0.27479935,0.00000000
S,-0.5,1730147660759051008,,1.00121880,-0.04271840,0.03683115,-0.00029100,0.00900726,-0.00166183,0.00100090,-0.00004329,0.00003645,0.00000089,0.00000730,-0.00000154,,,,,,,,,,,,,,,,,,,,,,,
S,-0.5,1730147660760046592,,1.00232947,-0.04342407,0.03731890,-0.00358750,0.01232708,-0.00506960,0.00100238,-0.00004296,0.00003717,-0.00000415,0.00001329,-0.00000498,,,,,,,,,,,,,,,,,,,,,,,
S,-0.5,1730147660760993536,,,,,,,,,,,,,,0.37539965,-0.59621859,0.41401175,0.57636178,-55.21390915,0.00750287,0.00527652,0.00789996,0.00511816,0.00315468,0.00376117,-0.00386456,9.82009697,-0.43235433,0.36035222,0.05836868,-0.14285567,-0.16547263,-9.76172829,0.28949866,-0.52582484,0.27479935,0.00000000
S,-0.5,1730147660761041664,,1.00281310,-0.04425979,0.03735472,-0.00576872,0.01361872,-0.00623083,0.00100308,-0.00004433,0.00003750,-0.00000642,0.00001444,-0.00000710,,,,,,,,,,,,,,,,,,,,,,,
S,-0.5,1730147660762035712,,1.00339782,-0.04291060,0.03522090,-0.00740092,0.01106758,-0.00750537,0.00100345,-0.00004342,0.00003562,-0.00000780,0.00001194,-0.00000764,,,,,,,,,,,,,,,,,,,,,,,
S,-0.5,1730147660762992128,,,,,,,,,,,,,,0.37540025,-0.59622520,0.41401112,0.57635504,-55.21390915,0.00750287,0.00527652,0.00789996,0.00511816,-0.00253245,0.01090718,-0.00809762,9.83003139,-0.42127439,0.36452475,0.06830597,-0.13189292,-0.16144320,-9.76172543,0.28938147,-0.52596796,0.27479935,0.00000000
S,-0.5,1730147660763034112,,1.00164068,-0.04271006,0.03718971,-0.01202232,0.01347547,-0.01116122,0.00100215,-0.00004232,0.00003615,-0.00001170,0.00001223,-0.00001090,,,,,,,,,,,,,,,,,,,,,,,
S,-0.5,1730147660764031488,,1.00155950,-0.04280111,0.03917439,-0.01118676,0.01516676,-0.01079370,0.00100101,-0.00004272,0.00003944,-0.00001281,0.00001563,-0.00001202,,,,,,,,,,,,,,,,,,,,,,,
S,-0.5,1730147660764988928,,,,,,,,,,,,,,0.37539884,-0.59623665,0.41400683,0.57634723,-55.21390915,0.00750287,0.00527652,0.00789996,0.00511816,-0.00618141,0.00955553,-0.01076245,9.84044075,-0.42582151,0.34931082,0.07872105,-0.13661930,-0.17685378,-9.76171970,0.28920221,-0.52616459,0.27479935,0.00000000
S,-0.5,1730147660765028352,,1.00022840,-0.03981050,0.03762491,-0.00971240,0.01463005,-0.01383536,0.00100044,-0.00004038,0.00003854,-0.00000971,0.00001527,-0.00001317,,,,,,,,,,,,,,,,,,,,,,,
S,-0.5,1730147660766024192,,0.99958974,-0.03899022,0.03687144,-0.01579162,0.01301248,-0.01264523,0.00099928,-0.00003819,0.00003651,-0.00001422,0.00001314,-0.00001383,,,,,,,,,,,,,,,,,,,,,,,
S,-0.5,1730147660766984192,,,,,,,,,,,,,,0.37539634,-0.59625179,0.41399831,0.57633913,-55.21390915,0.00750287,0.00527652,0.00789996,0.00511816,-0.01119235,0.01323922,-0.01514319,9.81660366,-0.41894639,0.38678181,0.05489063,-0.12998784,-0.13960230,-9.76171303,0.28895855,-0.52638412,0.27479935,0.00000000
S,-0.5,1730147660767019776,,1.00122929,-0.03645235,0.03702020,-0.02049501,0.01787033,-0.01623506,0.00100073,-0.00003665,0.00003675,-0.00002158,0.00001647,-0.00001520,,,,,,,,,,,,,,,,,,,,,,,
S,-0.5,1730147660768014336,,1.00227332,-0.03817263,0.03650771,-0.01642439,0.01892887,-0.01903419,0.00100261,-0.00003705,0.00003665,-0.00001866,0.00002028,-0.00001967,,,,,,,,,,,,,,,,,,,,,,,
S,-0.5,1730147660768977664,,,,,,,,,,,,,,0.37539354,-0.59626979,0.41398638,0.57633090,-55.21390915,0.00750287,0.00527652,0.00789996,0.00511816,-0.01260053,0.01074884,-0.01694867,9.79960918,-0.37448922,0.35808912,0.03789902,-0.08583117,-0.16852161,-9.76171017,0.28865805,-0.52661073,0.27479935,0.00000000
S,-0.5,1730147660769008128,,1.00198650,-0.03770663,0.03817476,-0.01529045,0.02305174,-0.01896663,0.00100237,-0.00003834,0.00003771,-0.00001420,0.00002264,-0.00001987,,,,,,,,,,,,,,,,,,,,,,,
S,-0.5,1730147660770012160,,1.00110483,-0.03606614,0.03868978,-0.02013265,0.02338847,-0.01901566,0.00100117,-0.00003622,0.00003913,-0.00001889,0.00002464,-0.00001899,,,,,,,,,,,,,,,,,,,,,,,
S,-0.5,1730147660770981120,,,,,,,,,,,,,,0.37539023,-0.59629184,0.41397136,0.57632107,-55.21390915,0.00750287,0.00527652,0.00789996,0.00511816,-0.01704386,0.01789612,-0.02278733,9.83220100,-0.36335468,0.35939905,0.07049370,-0.07506883,-0.16748193,-9.76170731,0.28828585,-0.52688098,0.27479935,0.00000000
S,-0.5,1730147660771015680,,0.99910259,-0.03488415,0.03913699,-0.02348855,0.02136498,-0.02140296,0.00099919,-0.00003458,0.00003922,-0.00002442,0.00002184,-0.00002098,,,,,,,,,,,,,,,,,,,,,,,
S,-0.5,1730147660772018176,,0.99657166,-0.03341936,0.04023727,-0.02207639,0.02108156,-0.02070545,0.00099639,-0.00003331,0.00004018,-0.00002340,0.00002049,-0.00002159,,,,,,,,,,,,,,,,,,,,,,,
S,-0.5,1730147660772983040,,,,,,,,,,,,,,0.37538463,-0.59631914,0.41395563,0.57630777,-55.21390915,0.00750287,0.00527652,0.00789996,0.00511816,-0.01727466,0.02225294,-0.02210426,9.81816006,-0.35515720,0.38370475,0.05646133,-0.06729165,-0.14355823,-9.76169872,0.28786555,-0.52726299,0.27479935,0.00000000
S,-0.5,1730147660773019904,,0.99331838,-0.03392858,0.04171086,-0.02616782,0.01975452,-0.02303709,0.00099310,-0.00003337,0.00004179,-0.00002497,0.00001991,-0.00002239,,,,,,,,,,,,,,,,,,,,,,,
S,-0.5,1730147660774020608,,0.99324757,-0.03181471,0.04195823,-0.02741976,0.02176012,-0.02752333,0.00099222,-0.00003236,0.00004238,-0.00002849,0.00002097,-0.00002745,,,,,,,,,,,,,,,,,,,,,,,
S,-0.5,1730147660774983168,,,,,,,,,,,,,,0.37537813,-0.59634781,0.41393799,0.57629502,-55.21390915,0.00750287,0.00527652,0.00789996,0.00511816,-0.02178392,0.01810224,-0.02471110,9.77128887,-0.32665163,0.39402729,0.00959778,-0.03922302,-0.13361865,-9.76169109,0.28742862,-0.52764595,0.27479935,0.00000000
S,-0.5,1730147660775020800,,0.99420619,-0.03057041,0.04319722,-0.02908071,0.02404458,-0.02820208,0.00099401,-0.00003012,0.00004305,-0.00002918,0.00002427,-0.00002951,,,,,,,,,,,,,,,,,,,,,,,
S,-0.5,1730147660776020480,,0.99604720,-0.02909676,0.04476966,-0.03310975,0.02307164,-0.02944375,0.00099602,-0.00002897,0.00004488,-0.00003291,0.00002398,-0.00002943,,,,,,,,,,,,,,,,,,,,,,,
S,-0.5,1730147660776982016,,,,,,,,,,,,,,0.37537196,-0.59637898,0.41391435,0.57628375,-55.21390915,0.00750287,0.00527652,0.00789996,0.00511816,-0.02687739,0.01858660,-0.03056943,9.73040199,-0.31734762,0.41562963,-0.03128529,-0.03043345,-0.11236089,-9.76168728,0.28691417,-0.52799052,0.27479935,0.00000000
S,-0.5,1730147660777019392,,0.99603051,-0.02779250,0.04386669,-0.03631953,0.02704990,-0.02689086,0.00099662,-0.00002756,0.00004453,-0.00003702,0.00002602,-0.00002775,,,,,,,,,,,,,,,,,,,,,,,
S,-0.5,1730147660778017536,,0.99286819,-0.02807827,0.04402188,-0.03402970,0.02383807,-0.03268864,0.00099344,-0.00002761,0.00004371,-0.00003547,0.00002569,-0.00003082,,,,,,,,,,,,,,,,,,,,,,,
S,-0.5,1730147660778979072,,,,,,,,,,,,,,0.37536448,-0.59641457,0.41388631,0.57627195,-55.21390915,0.00750287,0.00527652,0.00789996,0.00511816,-0.03128915,0.02158888,-0.03255321,9.76759815,-0.28408349,0.44010580,0.00591373,0.00224513,-0.08826065,-9.76168442,0.28632861,-0.52836645,0.27479935,0.00000000
S,-0.5,1730147660779014912,,0.99299562,-0.02527055,0.04546010,-0.03329676,0.02335868,-0.03233230,0.00099197,-0.00002587,0.00004525,-0.00003270,0.00002242,-0.00003424,,,,,,,,,,,,,,,,,,,,,,,
S,-0.5,1730147660780011264,,0.99424350,-0.02311130,0.04513602,-0.03491869,0.02562674,-0.03682909,0.00099406,-0.00002261,0.00004565,-0.00003439,0.00002506,-0.00003590,,,,,,,,,,,,,,,,,,,,,,,
S,-0.5,1730147660780974592,,,,,,,,,,,,,,0.37535492,-0.59645349,0.41385615,0.57625955,-55.21390915,0.00750287,0.00527652,0.00789996,0.00511816,-0.03385020,0.02330123,-0.03394166,9.74229336,-0.27077061,0.42861181,-0.01938629,0.01494327,-0.10017461,-9.76167965,0.28571388,-0.52878642,0.27479935,0.00000000
S,-0.5,1730147660781006848,,0.99513966,-0.02229041,0.04470488,-0.03829001,0.02844099,-0.03677141,0.00099537,-0.00002175,0.00004468,-0.00003819,0.00002865,-0.00003821,,,,,,,,,,,,,,,,,,,,,,,
S,-0.5,1730147660782001408,,0.99596578,-0.02199436,0.04563309,-0.03649177,0.03139388,-0.03756527,0.00099610,-0.00002179,0.00004533,-0.00003789,0.00003175,-0.00003740,,,,,,,,,,,,,,,,,,,,,,,
S,-0.5,1730147660782968064,,,,,,,,,,,,,,0.37534654,-0.59649432,0.41382381,0.57624596,-55.21390915,0.00750287,0.00527652,0.00789996,0.00511816,-0.03277344,0.02267536,-0.03901767,9.74837303,-0.22172607,0.44770202,-0.01330280,0.06331132,-0.08151373,-9.76167583,0.28503740,-0.52921575,0.27479935,0.00000000
S,-0.5,1730147660782996480,,0.99926353,-0.02074414,0.04504106,-0.03134823,0.03071387,-0.03951983,0.00099893,-0.00002088,0.00004544,-0.00003171,0.00003178,-0.00003942,,,,,,,,,,,,,,,,,,,,,,,
S,-0.5,1730147660783990784,,0.99825186,-0.02070259,0.04618562,-0.02944670,0.03088126,-0.03970703,0.00099949,-0.00002031,0.00004579,-0.00002815,0.00003063,-0.00004030,,,,,,,,,,,,,,,,,,,,,,,
S,-0.5,1730147660784961792,,,,,,,,,,,,,,0.37533811,-0.59653872,0.41378996,0.57622981,-55.21390915,0.00750287,0.00527652,0.00789996,0.00511816,-0.03627434,0.02936646,-0.04052170,9.76841259,-0.21365665,0.44451058,0.00674152,0.07064100,-0.08519310,-9.76167107,0.28429765,-0.52970368,0.27479935,0.00000000
S,-0.5,1730147660784984576,,0.99785095,-0.01789733,0.04604575,-0.02677615,0.03070533,-0.04182388,0.00099760,-0.00001839,0.00004644,-0.00002666,0.00003079,-0.00004150,,,,,,,,,,,,,,,,,,,,,,,
S,-0.5,1730147660785977344,,0.99755633,-0.01805356,0.04573561,-0.02464823,0.03239827,-0.03816021,0.00099748,-0.00001713,0.00004575,-0.00002418,0.00003203,-0.00003950,,,,,,,,,,,,,,,,,,,,,,,
