state,extension,timestamp,invalid_fields,scaledAccelX,scaledAccelY,scaledAccelZ,scaledGyroX,scaledGyroY,scaledGyroZ,deltaVelX,deltaVelY,deltaVelZ,deltaThetaX,deltaThetaY,deltaThetaZ,estOrientQuaternionW,estOrientQuaternionX,estOrientQuaternionY,estOrientQuaternionZ,estPressureAlt,estAttitudeUncertQuaternionW,estAttitudeUncertQuaternionX,estAttitudeUncertQuaternionY,estAttitudeUncertQuaternionZ,estAngularRateX,estAngularRateY,estAngularRateZ,estCompensatedAccelX,estCompensatedAccelY,estCompensatedAccelZ,estLinearAccelX,estLinearAccelY,estLinearAccelZ,estGravityVectorX,estGravityVectorY,estGravityVectorZ,current_altitude,speed
S,-0.5,1730147697260949878,,0.00660294,-1.00310409,0.02041484,-0.01434856,-0.00086778,-0.00294726,0.00000682,-0.00100232,0.00002041,-0.00001367,-0.00000212,-0.00000192,,,,,,,,,,,,,,,,,,,,,,,
S,-0.5,1730147697261949696,,0.00471859,-1.00232518,0.02019950,-0.01074267,0.00347503,-0.00328689,0.00000513,-0.00100311,0.00002030,-0.00001190,0.00000347,-0.00000377,,,,,,,,,,,,,,,,,,,,,,,
S,-0.5,1730147697261735769,,,,,,,,,,,,,,0.20810357,0.21467440,-0.68419349,-0.66519701,-56.56677628,0.01182076,0.01256232,0.00404387,0.00369667,-0.01108371,-0.00385532,-0.00391138,0.06712206,-9.81639767,0.19783422,0.05895269,-0.04018497,-0.08003661,-0.00816937,9.77621269,-0.27787083,0.00000000,0.00000000
S,-0.5,1730147697262948864,,0.00311535,-1.00127053,0.01930364,-0.00723070,0.00658817,0.00237007,0.00000281,-0.00100121,0.00001940,-0.00000672,0.00000740,0.00000123,,,,,,,,,,,,,,,,,,,,,,,
S,-0.5,1730147697263947264,,0.00293150,-1.00354552,0.01911046,-0.00409513,0.00871763,-0.00048683,0.00000245,-0.00100280,0.00001886,-0.00000355,0.00000932,0.00000183,,,,,,,,,,,,,,,,,,,,,,,
S,-0.5,1730147697263734528,,,,,,,,,,,,,,0.20810132,0.21467495,-0.68418550,-0.66520572,-56.56677628,0.01182076,0.01256232,0.00404387,0.00369667,-0.01027809,0.00107328,-0.00689741,0.05030175,-9.83718395,0.19911104,0.04202599,-0.06096554,-0.07855165,-0.00827575,9.77621841,-0.27766269,0.00000000,0.00000000
S,-0.5,1730147697264944896,,0.00472279,-1.00533378,0.01730732,-0.00329423,0.01015212,0.00452032,0.00000434,-0.00100573,0.00001757,-0.00000244,0.00001057,0.00000270,,,,,,,,,,,,,,,,,,,,,,,
S,-0.5,1730147697265941504,,0.00523154,-1.00741243,0.02000455,-0.00361684,0.00994625,0.00589726,0.00000571,-0.00100760,0.00001894,-0.00000330,0.00001044,0.00000724,,,,,,,,,,,,,,,,,,,,,,,
S,-0.5,1730147697265731840,,,,,,,,,,,,,,0.20810266,0.21467915,-0.68417978,-0.66520995,-56.56677628,0.01182076,0.01256232,0.00404387,0.00369667,-0.00192895,0.00692655,-0.00129184,0.02407067,-9.83407497,0.18495989,0.01571680,-0.05785179,-0.09258178,-0.00835387,9.77622318,-0.27754167,0.00000000,0.00000000
S,-0.5,1730147697266937344,,0.00776067,-1.00641334,0.02156343,-0.00416113,0.01269165,0.00954123,0.00000746,-0.00100726,0.00002214,-0.00000416,0.00001213,0.00000932,,,,,,,,,,,,,,,,,,,,,,,
S,-0.5,1730147697267934976,,0.00841878,-1.00429404,0.02265871,-0.00016064,0.01182239,0.00882188,0.00000910,-0.00100436,0.00002296,-0.00000106,0.00001285,0.00001011,,,,,,,,,,,,,,,,,,,,,,,
S,-0.5,1730147697267730176,,,,,,,,,,,,,,0.20810911,0.21468279,-0.68417734,-0.66520929,-56.56677628,0.01182076,0.01256232,0.00404387,0.00369667,-0.00168530,0.00804514,0.00411616,0.05598531,-9.88121891,0.18574247,0.04766321,-0.10499477,-0.09176373,-0.00832210,9.77622414,-0.27750620,0.00000000,0.00000000
S,-0.5,1730147697268931840,,0.00688336,-1.00233912,0.02293589,-0.00052361,0.01003703,0.00748247,0.00000737,-0.00100202,0.00002323,0.00000082,0.00001008,0.00000750,,,,,,,,,,,,,,,,,,,,,,,
S,-0.5,1730147697269927936,,0.00839147,-1.00069845,0.02242434,-0.00326449,0.01325881,0.00942644,0.00000763,-0.00100037,0.00002261,-0.00000288,0.00001211,0.00000865,,,,,,,,,,,,,,,,,,,,,,,
S,-0.5,1730147697269726720,,,,,,,,,,,,,,0.20811926,0.21468502,-0.68417621,-0.66520655,-56.56677628,0.01182076,0.01256232,0.00404387,0.00369667,0.00055725,0.01045909,0.00698774,0.08928160,-9.84941864,0.22512317,0.08107347,-0.07319355,-0.05237174,-0.00820813,9.77622509,-0.27749491,0.00000000,0.00000000
S,-0.5,1730147697270923264,,0.00810264,-1.00330293,0.02399424,-0.00098837,0.01487985,0.00699675,0.00000864,-0.00100231,0.00002355,-0.00000227,0.00001561,0.00000806,,,,,,,,,,,,,,,,,,,,,,,
S,-0.5,1730147697271918080,,0.00804464,-1.00246334,0.02629174,-0.00244359,0.01562534,0.00540529,0.00000796,-0.00100345,0.00002637,-0.00000145,0.00001601,0.00000492,,,,,,,,,,,,,,,,,,,,,,,
S,-0.5,1730147697271726336,,,,,,,,,,,,,,0.20813039,0.21468738,-0.68417519,-0.66520333,-56.56677628,0.01182076,0.01256232,0.00404387,0.00369667,-0.00126405,0.00971002,0.00552215,0.07481120,-9.81032085,0.22168127,0.06673044,-0.03409576,-0.05580679,-0.00808076,9.77622509,-0.27748805,0.00000000,0.00000000
S,-0.5,1730147697272916992,,0.00922124,-1.00236273,0.02549368,-0.00490111,0.01593409,0.00552416,0.00000899,-0.00100211,0.00002637,-0.00000492,0.00001612,0.00000500,,,,,,,,,,,,,,,,,,,,,,,
S,-0.5,1730147697273915136,,0.00949060,-1.00322306,0.02320285,-0.00061194,0.01365257,0.00726158,0.00000982,-0.00100303,0.00002337,-0.00000217,0.00001417,0.00000698,,,,,,,,,,,,,,,,,,,,,,,
S,-0.5,1730147697273725184,,,,,,,,,,,,,,0.20814092,0.21469252,-0.68417317,-0.66520047,-56.56677628,0.01182076,0.01256232,0.00404387,0.00369667,0.00016331,0.01361076,0.00179630,0.07809535,-9.84043407,0.25864145,0.07009270,-0.06420898,-0.01883528,-0.00800264,9.77622509,-0.27747673,0.00000000,0.00000000
S,-0.5,1730147697274912768,,0.00944870,-1.00213778,0.02134511,0.00068951,0.01817805,0.00893505,0.00000954,-0.00100261,0.00002095,0.00000182,0.00001663,0.00000918,,,,,,,,,,,,,,,,,,,,,,,
S,-0.5,1730147697275909632,,0.00834753,-1.00180364,0.02151020,-0.00121173,0.02221774,0.00829547,0.00000853,-0.00100152,0.00002089,-0.00000045,0.00002292,0.00000894,,,,,,,,,,,,,,,,,,,,,,,
S,-0.5,1730147697275722496,,,,,,,,,,,,,,0.20815150,0.21469896,-0.68417096,-0.66519725,-56.56677628,0.01182076,0.01256232,0.00404387,0.00369667,-0.00055550,0.01177025,0.00385900,0.09626223,-9.83640957,0.22913501,0.08832196,-0.06018543,-0.04833934,-0.00794027,9.77622414,-0.27747434,0.00000000,0.00000000
S,-0.5,1730147697276905728,,0.00727174,-0.99943954,0.02392205,-0.00472871,0.01752289,0.00322105,0.00000712,-0.00099976,0.00002354,-0.00000469,0.00001966,0.00000394,,,,,,,,,,,,,,,,,,,,,,,
S,-0.5,1730147697277900800,,0.00765120,-0.99702191,0.02536030,-0.00586601,0.01706648,0.00443140,0.00000724,-0.00099671,0.00002587,-0.00000678,0.00001565,0.00000260,,,,,,,,,,,,,,,,,,,,,,,
S,-0.5,1730147697277718784,,,,,,,,,,,,,,0.20816572,0.21470647,-0.68416888,-0.66519260,-56.56677628,0.01182076,0.01256232,0.00404387,0.00369667,0.00116596,0.02052915,0.00581961,0.08369267,-9.82154655,0.20484805,0.07585587,-0.04532146,-0.07263151,-0.00783680,9.77622509,-0.27747956,0.00000000,0.00000000
S,-0.5,1730147697278895872,,0.00606317,-0.99587905,0.02568997,-0.00591473,0.01902222,0.00523351,0.00000647,-0.00099532,0.00002609,-0.00000627,0.00001852,0.00000547,,,,,,,,,,,,,,,,,,,,,,,
S,-0.5,1730147697279895552,,0.00682852,-0.99265528,0.02529263,-0.00430273,0.01606189,0.00569379,0.00000618,-0.00099288,0.00002547,-0.00000461,0.00001722,0.00000587,,,,,,,,,,,,,,,,,,,,,,,
S,-0.5,1730147697279719168,,,,,,,,,,,,,,0.20817947,0.21471548,-0.68416458,-0.66518980,-56.56677628,0.01182076,0.01256232,0.00404387,0.00369667,-0.00516087,0.01325986,-0.00052848,0.07099961,-9.77437210,0.25366393,0.06322403,0.00185394,-0.02377653,-0.00777559,9.77622604,-0.27744046,0.00000000,0.00000000
S,-0.5,1730147697280894464,,0.00625783,-0.99316907,0.02466230,-0.00596716,0.01353368,0.00644250,0.00000661,-0.00099205,0.00002465,-0.00000515,0.00001305,0.00000645,,,,,,,,,,,,,,,,,,,,,,,
S,-0.5,1730147697281892864,,0.00629620,-0.99216890,0.02462116,-0.00217959,0.01394909,0.00803439,0.00000611,-0.00099251,0.00002443,-0.00000340,0.00001307,0.00000798,,,,,,,,,,,,,,,,,,,,,,,
S,-0.5,1730147697281717760,,,,,,,,,,,,,,0.20819069,0.21472321,-0.68415916,-0.66518933,-56.56677628,0.01182076,0.01256232,0.00404387,0.00369667,-0.00299313,0.01482716,0.00274073,0.06064382,-9.73680019,0.24977435,0.05289738,0.03942776,-0.02758713,-0.00774644,9.77622795,-0.27736148,0.00000000,0.00000000
S,-0.5,1730147697282890496,,0.00699140,-0.99397385,0.02483560,0.00233666,0.01281525,0.00472887,0.00000688,-0.00099333,0.00002478,0.00000272,0.00001315,0.00000584,,,,,,,,,,,,,,,,,,,,,,,
S,-0.5,1730147697283887616,,0.00656600,-0.99421632,0.02420346,0.00274580,0.00770773,0.00832247,0.00000686,-0.00099475,0.00002439,0.00000411,0.00000827,0.00000662,,,,,,,,,,,,,,,,,,,,,,,
S,-0.5,1730147697283714816,,,,,,,,,,,,,,0.20820245,0.21472859,-0.68415576,-0.66518742,-56.56677628,0.01182076,0.01256232,0.00404387,0.00369667,-0.00177957,0.01067374,0.00485874,0.05989359,-9.73323917,0.23955823,0.05222905,0.04299068,-0.03775711,-0.00766454,9.77622986,-0.27731535,0.00000000,0.00000000
S,-0.5,1730147697284886272,,0.00449462,-0.99548256,0.02472326,0.00180699,0.00920872,0.00793997,0.00000474,-0.00099533,0.00002443,0.00000211,0.00000731,0.00000915,,,,,,,,,,,,,,,,,,,,,,,
S,-0.5,1730147697285884160,,0.00558890,-0.99788141,0.02351684,-0.00241508,0.01127533,0.00886503,0.00000473,-0.00099785,0.00002390,-0.00000195,0.00001138,0.00000858,,,,,,,,,,,,,,,,,,,,,,,
S,-0.5,1730147697285713408,,,,,,,,,,,,,,0.20821047,0.21473165,-0.68415624,-0.66518342,-55.85863495,0.01182076,0.01256232,0.00404387,0.00369667,0.00572702,0.00587969,0.00349261,0.06731804,-9.75513363,0.23915167,0.05973949,0.02109528,-0.03820230,-0.00757855,9.77622890,-0.27735397,0.70814133,0.00000000
S,-0.5,1730147697286881280,,0.00464247,-0.99575400,0.02458188,-0.00105376,0.01173842,0.00660871,0.00000516,-0.00099690,0.00002400,-0.00000265,0.00001231,0.00000731,,,,,,,,,,,,,,,,,,,,,,,
S,-0.5,1730147697287877632,,0.00263002,-0.99455726,0.02629320,0.00279798,0.00678033,0.00660287,0.00000269,-0.00099410,0.00002632,0.00000253,0.00000783,0.00000589,,,,,,,,,,,,,,,,,,,,,,,
S,-0.5,1730147697287709952,,,,,,,,,,,,,,0.20821795,0.21473409,-0.68415743,-0.66517907,-55.85863495,0.01182076,0.01256232,0.00404387,0.00369667,-0.00032882,0.00898250,0.00545046,0.04639312,-9.78555298,0.23439029,0.03890609,-0.00932503,-0.04301596,-0.00748703,9.77622795,-0.27740625,0.70814133,0.00000000
S,-0.5,1730147697288873216,,0.00407613,-0.99685824,0.02779460,0.00207774,0.00527405,0.00734059,0.00000317,-0.00099606,0.00002807,0.00000343,0.00000397,0.00000720,,,,,,,,,,,,,,,,,,,,,,,
S,-0.5,1730147697289867776,,0.00527520,-0.99979609,0.02720865,0.00173933,0.00964555,0.00927466,0.00000552,-0.00099999,0.00002779,0.00000157,0.00000837,0.00000916,,,,,,,,,,,,,,,,,,,,,,,
S,-0.5,1730147697289705216,,,,,,,,,,,,,,0.20822521,0.21473648,-0.68415809,-0.66517538,-55.85863495,0.01182076,0.01256232,0.00404387,0.00369667,0.00414947,0.00543345,0.00276098,0.02642433,-9.74876690,0.25812781,0.01902153,0.02746010,-0.01931551,-0.00740280,9.77622700,-0.27744332,0.70814133,0.00000000
S,-0.5,1730147697290861824,,0.00498483,-1.00139236,0.02848852,-0.00019005,0.00718192,0.01352350,0.00000542,-0.00100204,0.00002807,0.00000005,0.00000902,0.00001337,,,,,,,,,,,,,,,,,,,,,,,
S,-0.5,1730147697291860736,,0.00506144,-0.99963719,0.02827163,-0.00490013,0.00277364,0.01166603,0.00000496,-0.00100046,0.00002872,-0.00000466,0.00000279,0.00001336,,,,,,,,,,,,,,,,,,,,,,,
S,-0.5,1730147697291704320,,,,,,,,,,,,,,0.20823124,0.21473803,-0.68416029,-0.66517073,-55.85863495,0.01182076,0.01256232,0.00404387,0.00369667,0.00318954,0.00597670,0.00603334,0.05410801,-9.80659866,0.27255490,0.04679440,-0.03037453,-0.00496024,-0.00731361,9.77622414,-0.27751514,0.70814133,0.00000000
S,-0.5,1730147697292858880,,0.00337297,-0.99831080,0.02770944,-0.00457939,0.00134187,0.00963464,0.00000370,-0.00099799,0.00002774,-0.00000614,0.00000020,0.00000941,,,,,,,,,,,,,,,,,,,,,,,
S,-0.5,1730147697293856000,,0.00448436,-0.99828523,0.02626675,-0.00796301,-0.00252261,0.00655880,0.00000375,-0.00099787,0.00002635,-0.00000725,-0.00000228,0.00000647,,,,,,,,,,,,,,,,,,,,,,,
S,-0.5,1730147697293706240,,,,,,,,,,,,,,0.20823881,0.21473460,-0.68416142,-0.66516829,-55.85863495,0.01182076,0.01256232,0.00404387,0.00369667,-0.00304050,0.00039525,0.01023122,0.04859304,-9.81120205,0.28162774,0.04144004,-0.03497791,0.00411066,-0.00715300,9.77622414,-0.27751708,0.70814133,0.00000000
S,-0.5,1730147697294859264,,0.00298714,-0.99805081,0.02557820,-0.00630884,-0.00585321,0.00404459,0.00000361,-0.00099809,0.00002524,-0.00000769,-0.00000648,0.00000352,,,,,,,,,,,,,,,,,,,,,,,
S,-0.5,1730147697295866624,,0.00410038,-0.99914056,0.02556016,-0.00595753,-0.00923704,0.01072551,0.00000342,-0.00099887,0.00002534,-0.00000549,-0.00000968,0.00000871,,,,,,,,,,,,,,,,,,,,,,,
S,-0.5,1730147697295714304,,,,,,,,,,,,,,0.20824279,0.21472763,-0.68416047,-0.66517031,-55.85863495,0.01182076,0.01256232,0.00404387,0.00369667,-0.00562815,-0.00467135,0.00334630,0.03672811,-9.78573990,0.25840357,0.02970656,-0.00951195,-0.01902837,-0.00702155,9.77622795,-0.27743194,0.70814133,0.00000000
S,-0.5,1730147697296873472,,0.00279343,-1.00105047,0.02573950,-0.00633703,-0.00805059,0.01121257,0.00000338,-0.00100105,0.00002570,-0.00000616,-0.00000934,0.00001325,,,,,,,,,,,,,,,,,,,,,,,
S,-0.5,1730147697297880832,,0.00183584,-0.99947149,0.02467583,-0.00660273,-0.00891033,0.01278524,0.00000159,-0.00100037,0.00002493,-0.00000668,-0.00000838,0.00001265,,,,,,,,,,,,,,,,,,,,,,,
S,-0.5,1730147697297722112,,,,,,,,,,,,,,0.20824105,0.21471801,-0.68415999,-0.66517442,-55.85863495,0.01182076,0.01256232,0.00404387,0.00369667,-0.00387684,-0.01207751,0.00558662,0.03354964,-9.79554844,0.24854411,0.02661087,-0.01931858,-0.02879499,-0.00693877,9.77622986,-0.27733910,0.70814133,0.00000000
S,-0.5,1730147697298887680,,0.00151572,-0.99760717,0.02349250,-0.00743240,-0.01230852,0.01061512,0.00000127,-0.00099744,0.00002337,-0.00000737,-0.00001196,0.00001151,,,,,,,,,,,,,,,,,,,,,,,
S,-0.5,1730147697299893504,,0.00393896,-0.99848151,0.02669942,-0.00729616,-0.01239433,0.01352568,0.00000340,-0.00099773,0.00002574,-0.00000759,-0.00001346,0.00001231,,,,,,,,,,,,,,,,,,,,,,,
S,-0.5,1730147697299728640,,,,,,,,,,,,,,0.20823921,0.21470432,-0.68416101,-0.66517836,-55.85863495,0.01182076,0.01256232,0.00404387,0.00369667,-0.00505726,-0.01077159,0.00952979,0.01563042,-9.81024170,0.24444181,0.00883301,-0.03400993,-0.03280985,-0.00679741,9.77623177,-0.27725166,0.70814133,0.00000000
S,-0.5,1730147697300904192,,0.00361460,-0.99653870,0.02774957,-0.00800311,-0.01336029,0.01571503,0.00000444,-0.00099717,0.00002858,-0.00000783,-0.00001321,0.00001624,,,,,,,,,,,,,,,,,,,,,,,
S,-0.5,1730147697301914112,,0.00470153,-0.99539596,0.02606907,-0.00737240,-0.01604519,0.01924771,0.00000440,-0.00099499,0.00002671,-0.00000771,-0.00001586,0.00001930,,,,,,,,,,,,,,,,,,,,,,,
S,-0.5,1730147697301739008,,,,,,,,,,,,,,0.20823751,0.21468791,-0.68416214,-0.66518307,-55.85863495,0.01182076,0.01256232,0.00404387,0.00369667,-0.00596701,-0.01585555,0.00918135,0.03331040,-9.78438091,0.25242388,0.02668845,-0.00814533,-0.02471909,-0.00662194,9.77623558,-0.27714297,0.70814133,0.00000000
S,-0.5,1730147697302923520,,0.00568398,-0.99535996,0.02505641,-0.00962953,-0.02132511,0.01743272,0.00000585,-0.00099500,0.00002471,-0.00000902,-0.00002122,0.00001889,,,,,,,,,,,,,,,,,,,,,,,
S,-0.5,1730147697303932160,,0.00678330,-0.99621254,0.02297255,-0.01033855,-0.02543474,0.01093068,0.00000690,-0.00099605,0.00002303,-0.00001093,-0.00002637,0.00001153,,,,,,,,,,,,,,,,,,,,,,,
S,-0.5,1730147697303747584,,,,,,,,,,,,,,0.20823558,0.21466663,-0.68416440,-0.66518819,-55.85863495,0.01182076,0.01256232,0.00404387,0.00369667,-0.00609404,-0.01825997,0.01617800,0.04315470,-9.75747204,0.26192278,0.03677118,0.01876736,-0.01510260,-0.00638352,9.77623940,-0.27702537,0.70814133,0.00000000
S,-0.5,1730147697304941312,,0.00497004,-0.99617815,0.02256452,-0.01313500,-0.02030643,0.01356667,0.00000565,-0.00099646,0.00002198,-0.00001285,-0.00002255,0.00001102,,,,,,,,,,,,,,,,,,,,,,,
S,-0.5,1730147697305949696,,0.00489578,-0.99444336,0.02145718,-0.01009860,-0.02363873,0.01301533,0.00000433,-0.00099475,0.00002153,-0.00001154,-0.00002140,0.00001395,,,,,,,,,,,,,,,,,,,,,,,
S,-0.5,1730147697305756160,,,,,,,,,,,,,,0.20822932,0.21464097,-0.68416679,-0.66519594,-55.85863495,0.01182076,0.01256232,0.00404387,0.00369667,-0.00931018,-0.02876384,0.00840956,0.06763565,-9.76787663,0.22583407,0.06147948,0.00836658,-0.05104062,-0.00615617,9.77624321,-0.27687469,0.70814133,0.00000000
S,-0.5,1730147697306957568,,0.00437908,-0.99442112,0.02435740,-0.00904130,-0.02389709,0.01419211,0.00000445,-0.00099387,0.00002348,-0.00000827,-0.00002491,0.00001380,,,,,,,,,,,,,,,,,,,,,,,
S,-0.5,1730147697307964416,,0.00607277,-0.99495149,0.02458526,-0.00937277,-0.02411694,0.01220482,0.00000560,-0.00099485,0.00002547,-0.00000898,-0.00002416,0.00001294,,,,,,,,,,,,,,,,,,,,,,,
S,-0.5,1730147697307763200,,,,,,,,,,,,,,0.20821980,0.21461491,-0.68416792,-0.66520613,-55.85863495,0.01182076,0.01256232,0.00404387,0.00369667,-0.00992243,-0.02379602,0.01082982,0.04248087,-9.75514221,0.21112339,0.03649842,0.02110577,-0.06556363,-0.00598245,9.77624798,-0.27668703,0.70814133,0.00000000
S,-0.5,1730147697308971264,,0.00822724,-0.99313098,0.02291632,-0.01089595,-0.02535948,0.01477332,0.00000837,-0.00099363,0.00002329,-0.00001072,-0.00002520,0.00001367,,,,,,,,,,,,,,,,,,,,,,,
S,-0.5,1730147697309977088,,0.00914287,-0.99335009,0.02198573,-0.00626322,-0.02879925,0.01248910,0.00000966,-0.00099273,0.00002162,-0.00000759,-0.00002857,0.00001372,,,,,,,,,,,,,,,,,,,,,,,
S,-0.5,1730147697309769472,,,,,,,,,,,,,,0.20821129,0.21458930,-0.68416965,-0.66521531,-55.85863495,0.01182076,0.01256232,0.00404387,0.00369667,-0.00735801,-0.02655436,0.00981572,0.05492347,-9.75612736,0.24974577,0.04912872,0.02012539,-0.02677168,-0.00579475,9.77625275,-0.27651745,0.70814133,0.00000000
S,-0.5,1730147697310983424,,0.00774379,-0.99398381,0.01936245,-0.00575057,-0.02787657,0.01674800,0.00000829,-0.00099394,0.00001954,-0.00000437,-0.00002914,0.00001525,,,,,,,,,,,,,,,,,,,,,,,
S,-0.5,1730147697311988992,,0.00729738,-0.99455309,0.02004127,-0.00852334,-0.02541631,0.01687008,0.00000693,-0.00099465,0.00001908,-0.00000786,-0.00002557,0.00001820,,,,,,,,,,,,,,,,,,,,,,,
S,-0.5,1730147697311775488,,,,,,,,,,,,,,0.20819983,0.21456179,-0.68417341,-0.66522390,-55.85863495,0.01182076,0.01256232,0.00404387,0.00369667,-0.00597179,-0.03096491,0.01059696,0.09475485,-9.73536491,0.21205725,0.08914402,0.04089165,-0.06433018,-0.00561083,9.77625656,-0.27638742,0.70814133,0.00000000
S,-0.5,1730147697312993536,,0.00707753,-0.99380010,0.02116234,-0.01191292,-0.02841632,0.01266830,0.00000698,-0.00099412,0.00002117,-0.00001218,-0.00002709,0.00001347,,,,,,,,,,,,,,,,,,,,,,,
S,-0.5,1730147697313997312,,0.00553638,-0.99415869,0.02171118,-0.00903900,-0.02972938,0.01241005,0.00000575,-0.00099385,0.00002197,-0.00001064,-0.00003045,0.00001112,,,,,,,,,,,,,,,,,,,,,,,
S,-0.5,1730147697313779712,,,,,,,,,,,,,,0.20818952,0.21453214,-0.68417823,-0.66523170,-55.85863495,0.01182076,0.01256232,0.00404387,0.00369667,-0.00623839,-0.02796474,0.01507879,0.06798851,-9.75419712,0.18713668,0.06261262,0.02206326,-0.08913153,-0.00537590,9.77626038,-0.27626821,0.70814133,0.00000000
S,-0.5,1730147697315000320,,0.00250165,-0.99256182,0.02141090,-0.00498960,-0.03084069,0.00936784,0.00000256,-0.00099297,0.00002164,-0.00000481,-0.00003106,0.00000984,,,,,,,,,,,,,,,,,,,,,,,
S,-0.5,1730147697316002304,,0.00430218,-0.99102628,0.02053998,-0.00963305,-0.02886467,0.01211779,0.00000301,-0.00099080,0.00002060,-0.00000750,-0.00002958,0.00001065,,,,,,,,,,,,,,,,,,,,,,,
S,-0.5,1730147697315781888,,,,,,,,,,,,,,0.20817803,0.21450242,-0.68418199,-0.66524106,-55.85863495,0.01182076,0.01256232,0.00404387,0.00369667,-0.00902210,-0.03284087,0.00799477,0.05635496,-9.74637699,0.21543671,0.05118804,0.02988815,-0.06068154,-0.00516692,9.77626514,-0.27611825,0.70814133,0.00000000
S,-0.5,1730147697317004032,,0.00545715,-0.99069685,0.02124594,-0.00658761,-0.02295419,0.01091284,0.00000582,-0.00099027,0.00002084,-0.00000862,-0.00002340,0.00001201,,,,,,,,,,,,,,,,,,,,,,,
S,-0.5,1730147697318005248,,0.00493498,-0.99199462,0.02084760,-0.00778268,-0.02107449,0.01411704,0.00000540,-0.00099165,0.00002114,-0.00000660,-0.00001953,0.00001315,,,,,,,,,,,,,,,,,,,,,,,
S,-0.5,1730147697317783296,,,,,,,,,,,,,,0.20816262,0.21447401,-0.68418545,-0.66525149,-55.85863495,0.01182076,0.01256232,0.00404387,0.00369667,-0.00588243,-0.03197256,0.00752503,0.02950810,-9.71639919,0.20204066,0.02447497,0.05987072,-0.07393162,-0.00503313,9.77626991,-0.27597228,0.70814133,0.00000000
S,-0.5,1730147697319005696,,0.00680954,-0.99301559,0.02076666,-0.00660971,-0.02213227,0.01510927,0.00000630,-0.00099324,0.00002065,-0.00000720,-0.00002134,0.00001595,,,,,,,,,,,,,,,,,,,,,,,
S,-0.5,1730147697320005376,,0.00795846,-0.99328774,0.02123181,-0.00958336,-0.02438414,0.01321247,0.00000835,-0.00099356,0.00002112,-0.00000867,-0.00002431,0.00001387,,,,,,,,,,,,,,,,,,,,,,,
S,-0.5,1730147697319783424,,,,,,,,,,,,,,0.20815118,0.21444894,-0.68418932,-0.66525918,-55.85863495,0.01182076,0.01256232,0.00404387,0.00369667,-0.00497817,-0.02192977,0.01002658,0.05293035,-9.72480392,0.20736018,0.04805344,0.05146885,-0.06850517,-0.00487690,9.77627277,-0.27586535,0.70814133,0.00000000
S,-0.5,1730147697321004288,,0.00787224,-0.99501657,0.02246095,-0.00807626,-0.02485049,0.01035101,0.00000825,-0.00099479,0.00002239,-0.00000930,-0.00002548,0.00001027,,,,,,,,,,,,,,,,,,,,,,,
S,-0.5,1730147697322002176,,0.00600861,-0.99539083,0.02301125,-0.00601228,-0.02461418,0.01445352,0.00000632,-0.00099587,0.00002330,-0.00000591,-0.00002481,0.00001280,,,,,,,,,,,,,,,,,,,,,,,
S,-0.5,1730147697321781760,,,,,,,,,,,,,,0.20814274,0.21442440,-0.68419260,-0.66526634,-55.85863495,0.01182076,0.01256232,0.00404387,0.00369667,-0.00705171,-0.02670682,0.01074819,0.08185193,-9.74352741,0.20713034,0.07716507,0.03274822,-0.06861752,-0.00468686,9.77627563,-0.27574787,0.70814133,0.00000000
S,-0.5,1730147697323004672,,0.00742932,-0.99653822,0.02256995,-0.00809932,-0.02347500,0.01459128,0.00000658,-0.00099645,0.00002283,-0.00000706,-0.00002361,0.00001587,,,,,,,,,,,,,,,,,,,,,,,
S,-0.5,1730147697324006400,,0.00587597,-0.99715728,0.02344715,-0.00213353,-0.01831740,0.01334318,0.00000661,-0.00099741,0.00002315,-0.00000388,-0.00001889,0.00001361,,,,,,,,,,,,,,,,,,,,,,,
S,-0.5,1730147697323785216,,,,,,,,,,,,,,0.20813231,0.21439831,-0.68419665,-0.66527385,-55.85863495,0.01182076,0.01256232,0.00404387,0.00369667,-0.00428957,-0.02720068,0.00967256,0.06197367,-9.76618004,0.22852236,0.05747160,0.01009941,-0.04711500,-0.00450207,9.77627945,-0.27563736,0.70814133,0.00000000
S,-0.5,1730147697325009152,,0.00389847,-0.99776518,0.02670529,-0.00190851,-0.02654357,0.01013656,0.00000376,-0.00099785,0.00002639,-0.00000005,-0.00002341,0.00001032,,,,,,,,,,,,,,,,,,,,,,,
S,-0.5,1730147697326011136,,0.00588018,-0.99674529,0.02662227,0.00035267,-0.02294096,0.01485888,0.00000489,-0.00099712,0.00002767,0.00000001,-0.00002621,0.00001298,,,,,,,,,,,,,,,,,,,,,,,
S,-0.5,1730147697325787392,,,,,,,,,,,,,,0.20812313,0.21437460,-0.68420166,-0.66527921,-55.85863495,0.01182076,0.01256232,0.00404387,0.00369667,-0.00226380,-0.02128700,0.01048906,0.06482788,-9.78125191,0.22700007,0.06050944,-0.00497055,-0.04857241,-0.00431844,9.77628136,-0.27557248,0.70814133,0.00000000
S,-0.5,1730147697327012096,,0.00699984,-0.99905431,0.02534443,-0.00166199,-0.01699645,0.01516934,0.00000743,-0.00099831,0.00002555,-0.00000058,-0.00001693,0.00001662,,,,,,,,,,,,,,,,,,,,,,,
S,-0.5,1730147697328012288,,0.00589249,-0.99896681,0.02497024,-0.00764389,-0.01614624,0.01798504,0.00000645,-0.00099972,0.00002463,-0.00000720,-0.00001441,0.00001757,,,,,,,,,,,,,,,,,,,,,,,
S,-0.5,1730147697327788032,,,,,,,,,,,,,,0.20811290,0.21435098,-0.68420881,-0.66528267,-56.17571259,0.01182076,0.01256232,0.00404387,0.00369667,0.00163145,-0.02860911,0.00985543,0.04795889,-9.77844715,0.27139378,0.04382553,-0.00216579,-0.00417209,-0.00413336,9.77628136,-0.27556586,0.39106369,0.00000000
S,-0.5,1730147697329011968,,0.00533939,-1.00013578,0.02587065,-0.00475784,-0.01070902,0.02128820,0.00000509,-0.00099990,0.00002559,-0.00000719,-0.00001143,0.00002158,,,,,,,,,,,,,,,,,,,,,,,
S,-0.5,1730147697330010624,,0.00547265,-0.99989915,0.02534477,-0.00519594,-0.00860428,0.01735907,0.00000527,-0.00100031,0.00002573,-0.00000420,-0.00000726,0.00001912,,,,,,,,,,,,,,,,,,,,,,,
S,-0.5,1730147697329787136,,,,,,,,,,,,,,0.20810586,0.21432716,-0.68421483,-0.66528636,-56.17571259,0.01182076,0.01256232,0.00404387,0.00369667,-0.00558034,-0.01680365,0.01444753,0.06325290,-9.80388165,0.24154691,0.05934456,-0.02759933,-0.03398000,-0.00390834,9.77628231,-0.27552691,0.39106369,0.00000000
S,-0.5,1730147697331008768,,0.00565215,-1.00044155,0.02516027,-0.00538442,-0.00986294,0.01663971,0.00000566,-0.00100027,0.00002503,-0.00000549,-0.00000896,0.00001552,,,,,,,,,,,,,,,,,,,,,,,
S,-0.5,1730147697332005888,,0.00582442,-1.00151312,0.02678468,-0.00371851,-0.00965912,0.01521574,0.00000585,-0.00100149,0.00002643,-0.00000408,-0.00001010,0.00001525,,,,,,,,,,,,,,,,,,,,,,,
S,-0.5,1730147697331784704,,,,,,,,,,,,,,0.20810781,0.21430708,-0.68421811,-0.66528881,-56.17571259,0.01182076,0.01256232,0.00404387,0.00369667,-0.00257970,-0.00965109,0.01599964,0.05170632,-9.80973148,0.25229746,0.04808828,-0.03344727,-0.02314997,-0.00361804,9.77628422,-0.27544743,0.39106369,0.00000000
S,-0.5,1730147697333002240,,0.00655045,-1.00206959,0.02738337,-0.00205054,-0.01027146,0.01889805,0.00000647,-0.00100231,0.00002779,-0.00000182,-0.00001010,0.00001778,,,,,,,,,,,,,,,,,,,,,,,
S,-0.5,1730147697334004992,,0.00618158,-1.00108624,0.02517717,-0.00667039,-0.00550471,0.02215114,0.00000648,-0.00100144,0.00002577,-0.00000530,-0.00000657,0.00002273,,,,,,,,,,,,,,,,,,,,,,,
S,-0.5,1730147697333787904,,,,,,,,,,,,,,0.20811014,0.21428958,-0.68422174,-0.66529000,-56.17571259,0.01182076,0.01256232,0.00404387,0.00369667,-0.00246319,-0.01249192,0.01212074,0.05737168,-9.82127190,0.25919884,0.05402238,-0.04498577,-0.01619864,-0.00334930,9.77628613,-0.27539748,0.39106369,0.00000000
S,-0.5,1730147697335006976,,0.00672700,-1.00333905,0.02492234,-0.00526301,-0.00265459,0.02504523,0.00000651,-0.00100262,0.00002427,-0.00000699,-0.00000166,0.00002555,,,,,,,,,,,,,,,,,,,,,,,
S,-0.5,1730147697336008448,,0.00550416,-1.00469482,0.02476149,-0.00173035,-0.00237097,0.02714035,0.00000590,-0.00100517,0.00002471,-0.00000192,-0.00000152,0.00002768,,,,,,,,,,,,,,,,,,,,,,,
S,-0.5,1730147697335789824,,,,,,,,,,,,,,0.20811401,0.21427095,-0.68422532,-0.66529107,-56.17571259,0.01182076,0.01256232,0.00404387,0.00369667,-0.00368210,-0.00896082,0.01960745,0.06354003,-9.82079029,0.25270060,0.06049502,-0.04450226,-0.02263743,-0.00304500,9.77628803,-0.27533802,0.39106369,0.00000000
S,-0.5,1730147697337009664,,0.00598180,-1.00521946,0.02679091,-0.00011700,-0.00262754,0.02526275,0.00000551,-0.00100556,0.00002637,0.00000071,-0.00000249,0.00002627,,,,,,,,,,,,,,,,,,,,,,,
S,-0.5,1730147697338010112,,0.00485181,-1.00426030,0.02652518,0.00289933,-0.00240123,0.02061454,0.00000521,-0.00100460,0.00002722,0.00000286,-0.00000252,0.00002086,,,,,,,,,,,,,,,,,,,,,,,
S,-0.5,1730147697337793280,,,,,,,,,,,,,,0.20812473,0.21425115,-0.68423009,-0.66528922,-56.17571259,0.01182076,0.01256232,0.00404387,0.00369667,-0.00030622,-0.00391039,0.02455616,0.05785707,-9.85730743,0.24232258,0.05524024,-0.08101845,-0.03297631,-0.00261683,9.77628899,-0.27529889,0.39106369,0.00000000
S,-0.5,1730147697339012352,,0.00315369,-1.00317132,0.02761636,0.00471454,0.00129206,0.02452386,0.00000310,-0.00100306,0.00002733,0.00000534,0.00000069,0.00002233,,,,,,,,,,,,,,,,,,,,,,,
S,-0.5,1730147697340013824,,0.00363211,-1.00641668,0.02502885,0.00451652,0.00057690,0.02367511,0.00000300,-0.00100548,0.00002585,0.00000513,0.00000188,0.00002507,,,,,,,,,,,,,,,,,,,,,,,
S,-0.5,1730147697339794944,,,,,,,,,,,,,,0.20813532,0.21423417,-0.68423694,-0.66528434,-56.17571259,0.01182076,0.01256232,0.00404387,0.00369667,0.00448283,-0.00491914,0.01773667,0.05108875,-9.85177422,0.26693335,0.04888290,-0.07548618,-0.00840646,-0.00220586,9.77628803,-0.27533981,0.39106369,0.00000000
S,-0.5,1730147697341014784,,0.00381130,-1.00632918,0.02250307,0.00632811,0.00001356,0.02562375,0.00000393,-0.00100738,0.00002214,0.00000594,-0.00000011,0.00002500,,,,,,,,,,,,,,,,,,,,,,,
S,-0.5,1730147697342014720,,0.00443462,-1.00707436,0.02233606,0.00745641,0.00052978,0.02287649,0.00000438,-0.00100691,0.00002156,0.00000783,0.00000026,0.00002400,,,,,,,,,,,,,,,,,,,,,,,
S,-0.5,1730147697341795072,,,,,,,,,,,,,,0.20814545,0.21421996,-0.68424547,-0.66527694,-56.17571259,0.01182076,0.01256232,0.00404387,0.00369667,0.00674828,-0.00051267,0.02194895,0.02946339,-9.86039352,0.25346553,0.02764402,-0.08410835,-0.02198413,-0.00181937,9.77628517,-0.27544966,0.39106369,0.00000000
S,-0.5,1730147697343013888,,0.00518485,-1.00631571,0.02454913,0.00720113,0.00044081,0.02621149,0.00000525,-0.00100669,0.00002409,0.00000761,0.00000062,0.00002473,,,,,,,,,,,,,,,,,,,,,,,
S,-0.5,1730147697344012032,,0.00471605,-1.00719810,0.02423543,0.00235174,-0.00235742,0.02310625,0.00000504,-0.00100680,0.00002500,0.00000315,-0.00000188,0.00002473,,,,,,,,,,,,,,,,,,,,,,,
S,-0.5,1730147697343793920,,,,,,,,,,,,,,0.20815706,0.21420611,-0.68425572,-0.66526723,-56.17571259,0.01182076,0.01256232,0.00404387,0.00369667,0.00944605,-0.00213845,0.02087117,0.04293830,-9.87442303,0.21145670,0.04153691,-0.09814262,-0.06415130,-0.00140140,9.77628040,-0.27560800,0.39106369,0.00000000
S,-0.5,1730147697345009408,,0.00486584,-1.00399196,0.02390425,0.00331267,0.00068021,0.02443473,0.00000469,-0.00100486,0.00002386,0.00000159,-0.00000076,0.00002320,,,,,,,,,,,,,,,,,,,,,,,
S,-0.5,1730147697346007040,,0.00517961,-1.00250149,0.02485027,0.00423657,0.00724814,0.02521323,0.00000517,-0.00100175,0.00002457,0.00000437,0.00000702,0.00002549,,,,,,,,,,,,,,,,,,,,,,,
S,-0.5,1730147697345792000,,,,,,,,,,,,,,0.20816748,0.21419093,-0.68426567,-0.66525865,-56.17571259,0.01182076,0.01256232,0.00404387,0.00369667,0.00476957,-0.00427247,0.02160726,0.04942591,-9.87329865,0.24513189,0.04843783,-0.09702110,-0.03061466,-0.00098809,9.77627754,-0.27574655,0.39106369,0.00000000
S,-0.5,1730147697347003904,,0.00506930,-1.00212240,0.02597068,0.00403165,0.00487711,0.02288998,0.00000519,-0.00100172,0.00002607,0.00000436,0.00000740,0.00002356,,,,,,,,,,,,,,,,,,,,,,,
S,-0.5,1730147697347999744,,0.00388837,-1.00196469,0.02702002,0.00378373,0.00425541,0.02500525,0.00000407,-0.00100187,0.00002719,0.00000376,0.00000361,0.00002388,,,,,,,,,,,,,,,,,,,,,,,
S,-0.5,1730147697347793664,,,,,,,,,,,,,,0.20818107,0.21417712,-0.68427390,-0.66525036,-56.17571259,0.01182076,0.01256232,0.00404387,0.00369667,0.00599255,0.00462660,0.02236991,0.05070104,-9.82382870,0.24098082,0.05014287,-0.04755497,-0.03487067,-0.00055817,9.77627373,-0.27585149,0.39106369,0.00000000
S,-0.5,1730147697349000704,,0.00517413,-1.00056505,0.02754133,-0.00234431,0.00104540,0.02077590,0.00000456,-0.00100077,0.00002778,-0.00000131,0.00000143,0.00002222,,,,,,,,,,,,,,,,,,,,,,,
S,-0.5,1730147697350000896,,0.00453131,-0.99996024,0.02800754,0.00047737,0.00372945,0.01880630,0.00000506,-0.00099962,0.00002809,-0.00000199,0.00000222,0.00001782,,,,,,,,,,,,,,,,,,,,,,,
S,-0.5,1730147697349794304,,,,,,,,,,,,,,0.20819619,0.21416549,-0.68428171,-0.66524136,-56.17571259,0.01182076,0.01256232,0.00404387,0.00369667,0.00538155,0.00121851,0.02075667,0.03989149,-9.82501316,0.26660311,0.03975654,-0.04874229,-0.00935942,-0.00013495,9.77627087,-0.27596253,0.39106369,0.00000000
S,-0.5,1730147697351000320,,0.00196564,-0.99974287,0.02631229,0.00067437,0.00639687,0.01812975,0.00000223,-0.00099959,0.00002677,0.00000154,0.00000677,0.00001763,,,,,,,,,,,,,,,,,,,,,,,
S,-0.5,1730147697351998976,,0.00263498,-1.00018656,0.02793416,0.00106922,0.00828878,0.01517799,0.00000170,-0.00100004,0.00002710,0.00000106,0.00000879,0.00001550,,,,,,,,,,,,,,,,,,,,,,,
S,-0.5,1730147697351793152,,,,,,,,,,,,,,0.20820780,0.21415423,-0.68428707,-0.66523582,-56.17571259,0.01182076,0.01256232,0.00404387,0.00369667,-0.00036793,-0.00017512,0.01469316,0.04959949,-9.80296898,0.27545619,0.04981169,-0.02669907,-0.00055608,0.00021219,9.77626991,-0.27601227,0.39106369,0.00000000
S,-0.5,1730147697352996864,,0.00179600,-0.99776042,0.03014378,-0.00236569,0.00812017,0.01444138,0.00000216,-0.00099834,0.00003026,-0.00000162,0.00000875,0.00001364,,,,,,,,,,,,,,,,,,,,,,,
S,-0.5,1730147697353993728,,0.00169971,-0.99804336,0.03289625,0.00254841,0.00280774,0.01216686,0.00000145,-0.00099722,0.00003310,0.00000056,0.00000372,0.00001235,,,,,,,,,,,,,,,,,,,,,,,
S,-0.5,1730147697353790464,,,,,,,,,,,,,,0.20821868,0.21414728,-0.68429011,-0.66523153,-56.17571259,0.01182076,0.01256232,0.00404387,0.00369667,0.00267817,0.00639897,0.01237420,0.01664053,-9.80701065,0.26575854,0.01711884,-0.03074265,-0.01027679,0.00047830,9.77626801,-0.27603534,0.39106369,0.00000000
S,-0.5,1730147697354989824,,0.00035407,-1.00011408,0.03139236,0.00079342,0.00245042,0.00844240,0.00000057,-0.00099983,0.00003254,0.00000268,0.00000082,0.00000840,,,,,,,,,,,,,,,,,,,,,,,
S,-0.5,1730147697355985152,,0.00099529,-0.99973506,0.03117644,0.00108503,0.00315779,0.01278316,0.00000045,-0.00100046,0.00003074,0.00000047,0.00000292,0.00001081,,,,,,,,,,,,,,,,,,,,,,,
S,-0.5,1730147697355785984,,,,,,,,,,,,,,0.20833027,0.21426663,-0.68423980,-0.66520989,-56.17571259,0.01181089,0.01254656,0.00403720,0.00369388,0.00217990,0.00132444,0.00922076,0.01422227,-9.77938366,0.32459697,0.01452715,-0.00310516,0.04890782,0.00030488,9.77627850,-0.27568915,0.39106369,0.00000000
S,-0.5,1730147697356983808,,0.00077017,-1.00127912,0.03096315,-0.00019541,0.00430716,0.00901566,0.00000102,-0.00100088,0.00003093,0.00000013,0.00000432,0.00001108,,,,,,,,,,,,,,,,,,,,,,,
S,-0.5,1730147697357981696,,0.00054565,-1.00112748,0.03211245,0.00045938,-0.00214802,0.00760646,0.00000052,-0.00100165,0.00003184,-0.00000007,-0.00000061,0.00000666,,,,,,,,,,,,,,,,,,,,,,,
S,-0.5,1730147697357784576,,,,,,,,,,,,,,0.20833607,0.21426190,-0.68424284,-0.66520649,-56.17571259,0.01181089,0.01254656,0.00403720,0.00369388,0.00209111,0.00052068,0.00768407,0.00441546,-9.81119061,0.30142486,0.00488589,-0.03491306,0.02569452,0.00047044,9.77627754,-0.27573034,0.39106369,0.00000000
S,-0.5,1730147697358979072,,-0.00001444,-1.00003994,0.03061810,-0.00183351,0.00063171,0.00757090,0.00000002,-0.00100019,0.00003126,-0.00000121,-0.00000193,0.00000713,,,,,,,,,,,,,,,,,,,,,,,
S,-0.5,1730147697359975680,,0.00057631,-1.00085342,0.02952025,-0.00339970,-0.00546602,0.00899992,0.00000029,-0.00100036,0.00002924,-0.00000384,-0.00000347,0.00000873,,,,,,,,,,,,,,,,,,,,,,,
S,-0.5,1730147697359781376,,,,,,,,,,,,,,0.20833856,0.21425761,-0.68424553,-0.66520435,-56.17571259,0.01181089,0.01254656,0.00403720,0.00369388,0.00155053,-0.00300417,0.00353838,0.00505204,-9.82279682,0.31220174,0.00563177,-0.04652023,0.03643587,0.00057974,9.77627659,-0.27576587,0.39106369,0.00000000
S,-0.5,1730147697360976128,,0.00125049,-1.00052583,0.02806554,-0.00198541,-0.00834684,0.00702331,0.00000132,-0.00100084,0.00002798,-0.00000274,-0.00000976,0.00000784,,,,,,,,,,,,,,,,,,,,,,,
S,-0.5,1730147697361975808,,0.00216583,-1.00119495,0.02656178,-0.00177977,-0.01154372,0.00714443,0.00000221,-0.00100097,0.00002637,-0.00000137,-0.00001188,0.00000649,,,,,,,,,,,,,,,,,,,,,,,
S,-0.5,1730147697361781504,,,,,,,,,,,,,,0.20833863,0.21425146,-0.68424720,-0.66520458,-56.17571259,0.01181089,0.01254656,0.00403720,0.00369388,-0.00222729,-0.00586816,0.00560407,0.00284954,-9.81017399,0.28678399,0.00351614,-0.03389740,0.01102492,0.00066660,9.77627659,-0.27575907,0.39106369,0.00000000
S,-0.5,1730147697362974976,,0.00226384,-1.00003278,0.02393511,-0.00526235,-0.01391938,0.00091729,0.00000254,-0.00100046,0.00002393,-0.00000456,-0.00001451,0.00000209,,,,,,,,,,,,,,,,,,,,,,,
S,-0.5,1730147697363973120,,-0.00015729,-1.00051653,0.02441248,-0.00282136,-0.01393472,0.00517509,0.00000031,-0.00100006,0.00002349,-0.00000437,-0.00001469,0.00000242,,,,,,,,,,,,,,,,,,,,,,,
S,-0.5,1730147697363780352,,,,,,,,,,,,,,0.20833494,0.21424149,-0.68424958,-0.66520649,-56.17571259,0.01181601,0.01254300,0.00401913,0.00370579,0.00025075,-0.01427473,0.00336836,0.02171425,-9.81615353,0.25862163,0.02246274,-0.03987598,-0.01711792,0.00074850,9.77627754,-0.27573955,0.39106369,0.00000000
S,-0.5,1730147697364970496,,0.00280272,-0.99944437,0.02553781,-0.00439928,-0.01298080,0.00692208,0.00000149,-0.00099979,0.00002549,-0.00000334,-0.00001316,0.00000796,,,,,,,,,,,,,,,,,,,,,,,
S,-0.5,1730147697365967104,,0.00229617,-0.99860573,0.02624676,-0.00944035,-0.02352675,0.00977550,0.00000333,-0.00099842,0.00002648,-0.00000903,-0.00002131,0.00000981,,,,,,,,,,,,,,,,,,,,,,,
S,-0.5,1730147697365777408,,,,,,,,,,,,,,0.20832536,0.21422988,-0.68425232,-0.66521043,-56.17571259,0.01181601,0.01254300,0.00401913,0.00370579,-0.00275571,-0.01708298,-0.00070556,0.00307706,-9.80722618,0.23035486,0.00384305,-0.03094864,-0.04536040,0.00076599,9.77627754,-0.27571526,0.39106369,0.00000000
S,-0.5,1730147697366962944,,0.00177608,-0.99920803,0.02541957,-0.00729521,-0.02360724,0.00917808,0.00000171,-0.00099883,0.00002580,-0.00000929,-0.00002695,0.00001019,,,,,,,,,,,,,,,,,,,,,,,
S,-0.5,1730147697367958016,,0.00191138,-0.99924266,0.02494496,-0.00624220,-0.02219020,0.00683075,0.00000172,-0.00099943,0.00002477,-0.00000575,-0.00002247,0.00000707,,,,,,,,,,,,,,,,,,,,,,,
S,-0.5,1730147697367772672,,,,,,,,,,,,,,0.20831448,0.21421321,-0.68425381,-0.66521764,-55.55741119,0.01181601,0.01254300,0.00401913,0.00370579,-0.00740901,-0.02370187,0.00668826,0.03265877,-9.79112434,0.25963777,0.03347198,-0.01484394,-0.01597846,0.00081321,9.77628040,-0.27561623,1.00936508,0.00000000
S,-0.5,1730147697368952576,,0.00181472,-0.99678677,0.02430022,-0.00638644,-0.02264260,0.00542619,0.00000188,-0.00099724,0.00002427,-0.00000603,-0.00002211,0.00000493,,,,,,,,,,,,,,,,,,,,,,,
S,-0.5,1730147697369954560,,0.00049767,-0.99604362,0.02488857,-0.00767161,-0.02305746,0.00520843,0.00000071,-0.00099540,0.00002458,-0.00000748,-0.00002313,0.00000480,,,,,,,,,,,,,,,,,,,,,,,
S,-0.5,1730147697369774848,,,,,,,,,,,,,,0.20830263,0.21419221,-0.68425620,-0.66522568,-55.55741119,0.01181601,0.01254300,0.00401913,0.00370579,-0.00413300,-0.02486813,0.00394218,0.01688212,-9.80104065,0.24289294,0.01778597,-0.02475739,-0.03261043,0.00090385,9.77628326,-0.27550337,1.00936508,0.00000000
S,-0.5,1730147697370956032,,0.00184742,-0.99668193,0.02331421,-0.00913039,-0.03038605,0.00510141,0.00000118,-0.00099633,0.00002379,-0.00000927,-0.00002919,0.00000505,,,,,,,,,,,,,,,,,,,,,,,
S,-0.5,1730147697371956480,,0.00143580,-0.99822998,0.02102793,-0.00648817,-0.02884210,0.00629102,0.00000194,-0.00099815,0.00002094,-0.00000743,-0.00003146,0.00000604,,,,,,,,,,,,,,,,,,,,,,,
S,-0.5,1730147697371775744,,,,,,,,,,,,,,0.20828833,0.21417248,-0.68425870,-0.66523391,-55.55741119,0.01181601,0.01254300,0.00401913,0.00370579,-0.00586632,-0.02552094,0.00167602,0.00692562,-9.76150799,0.24101138,0.00787028,0.01477814,-0.03439450,0.00094466,9.77628613,-0.27540588,1.00936508,0.00000000
S,-0.5,1730147697372956160,,0.00079337,-0.99979657,0.02179066,-0.00395972,-0.03266516,0.00583735,0.00000078,-0.00100000,0.00002092,-0.00000358,-0.00003148,0.00000630,,,,,,,,,,,,,,,,,,,,,,,
S,-0.5,1730147697373957632,,-0.00019388,-1.00017488,0.02367386,0.00091634,-0.03369380,0.00606318,-0.00000022,-0.00100060,0.00002357,0.00000084,-0.00003472,0.00000588,,,,,,,,,,,,,,,,,,,,,,,
S,-0.5,1730147697373777920,,,,,,,,,,,,,,0.20827079,0.21414995,-0.68426150,-0.66524380,-55.55741119,0.01181601,0.01254300,0.00401913,0.00370579,-0.00581488,-0.03385024,0.00291593,0.01902642,-9.78852654,0.20537426,0.01999965,-0.01223660,-0.06991704,0.00097322,9.77628994,-0.27529129,1.00936508,0.00000000
S,-0.5,1730147697374958592,,0.00248150,-1.00043273,0.02337032,-0.00149692,-0.02991754,0.00576535,0.00000168,-0.00100051,0.00002402,0.00000049,-0.00003093,0.00000589,,,,,,,,,,,,,,,,,,,,,,,
S,-0.5,1730147697375958528,,0.00513419,-0.99915087,0.02441843,-0.00108880,-0.02930162,0.00980229,0.00000550,-0.00099947,0.00002413,-0.00000193,-0.00002821,0.00000897,,,,,,,,,,,,,,,,,,,,,,,
S,-0.5,1730147697375778048,,,,,,,,,,,,,,0.20824875,0.21412405,-0.68426836,-0.66525197,-55.55741119,0.01181601,0.01254300,0.00401913,0.00370579,0.00245294,-0.03711867,0.00275287,-0.00214736,-9.81258202,0.23119029,-0.00113828,-0.03629112,-0.04406804,0.00100907,9.77629089,-0.27525833,1.00936508,0.00000000
S,-0.5,1730147697376957696,,0.00572789,-0.99909616,0.02457823,0.00094232,-0.03136870,0.00866998,0.00000646,-0.00099870,0.00002488,0.00000070,-0.00003080,0.00001016,,,,,,,,,,,,,,,,,,,,,,,
S,-0.5,1730147697377955840,,0.00350305,-0.99844408,0.02557249,0.00114353,-0.03206720,0.00888282,0.00000410,-0.00099855,0.00002544,0.00000175,-0.00003260,0.00000848,,,,,,,,,,,,,,,,,,,,,,,
S,-0.5,1730147697377777152,,,,,,,,,,,,,,0.20822822,0.21409881,-0.68427706,-0.66525757,-55.55741119,0.01181601,0.01254300,0.00401913,0.00370579,-0.00031343,-0.03060637,0.00584911,0.05397150,-9.80141163,0.23664613,0.05504616,-0.02512169,-0.03863366,0.00107466,9.77628994,-0.27527979,1.00936508,0.00000000
S,-0.5,1730147697378953728,,0.00321160,-0.99825448,0.02505134,-0.00196166,-0.03201950,0.00938240,0.00000256,-0.00099808,0.00002546,-0.00000133,-0.00003225,0.00000936,,,,,,,,,,,,,,,,,,,,,,,
S,-0.5,1730147697379950848,,0.00250314,-0.99708670,0.02481133,0.00081217,-0.02766808,0.00933841,0.00000254,-0.00099724,0.00002469,-0.00000068,-0.00002844,0.00000951,,,,,,,,,,,,,,,,,,,,,,,
S,-0.5,1730147697379774464,,,,,,,,,,,,,,0.20820917,0.21407348,-0.68428612,-0.66526240,-55.55741119,0.01181601,0.01254300,0.00401913,0.00370579,0.00337120,-0.03499311,0.00535884,0.04017202,-9.79238319,0.24950853,0.04133820,-0.01609421,-0.02580073,0.00116618,9.77628899,-0.27530926,1.00936508,0.00000000
S,-0.5,1730147697380947200,,0.00121474,-0.99717170,0.02900662,0.00010836,-0.03056839,0.01232517,0.00000122,-0.00099678,0.00002817,0.00000112,-0.00002866,0.00001177,,,,,,,,,,,,,,,,,,,,,,,
S,-0.5,1730147697381944832,,0.00116431,-0.99626309,0.02841097,-0.00405010,-0.02733263,0.01530452,0.00000076,-0.00099646,0.00002985,-0.00000352,-0.00002884,0.00001571,,,,,,,,,,,,,,,,,,,,,,,
S,-0.5,1730147697381772032,,,,,,,,,,,,,,0.20819010,0.21404801,-0.68429565,-0.66526675,-55.55741119,0.01181601,0.01254300,0.00401913,0.00370579,0.00093747,-0.03083836,0.00638053,0.02489971,-9.77956963,0.24211740,0.02616237,-0.00328159,-0.03323397,0.00126266,9.77628803,-0.27535138,1.00936508,0.00000000
S,-0.5,1730147697382941696,,-0.00046629,-0.99460906,0.02890542,-0.00298894,-0.02593295,0.01376744,-0.00000019,-0.00099462,0.00002863,-0.00000451,-0.00002516,0.00001500,,,,,,,,,,,,,,,,,,,,,,,
S,-0.5,1730147697383937792,,0.00061128,-0.99390024,0.02955457,-0.00038723,-0.02600604,0.01348961,-0.00000010,-0.00099350,0.00002959,-0.00000052,-0.00002555,0.00001305,,,,,,,,,,,,,,,,,,,,,,,
S,-0.5,1730147697383768576,,,,,,,,,,,,,,0.20817527,0.21402077,-0.68430382,-0.66527176,-55.55741119,0.01181601,0.01254300,0.00401913,0.00370579,-0.00190089,-0.03123859,0.01258901,0.00748278,-9.77188873,0.29276979,0.00891362,0.00439930,0.01742798,0.00143083,9.77628803,-0.27534181,1.00936508,0.00000000
S,-0.5,1730147697384933120,,0.00280522,-0.99193925,0.02867026,-0.00202002,-0.02396237,0.01469753,0.00000275,-0.00099207,0.00002904,-0.00000090,-0.00002436,0.00001439,,,,,,,,,,,,,,,,,,,,,,,
S,-0.5,1730147697385927424,,0.00057676,-0.99586046,0.03006171,-0.00283332,-0.02225171,0.01566012,0.00000168,-0.00099452,0.00002953,-0.00000321,-0.00002191,0.00001587,,,,,,,,,,,,,,,,,,,,,,,
S,-0.5,1730147697385768192,,,,,,,,,,,,,,0.20816261,0.21399330,-0.68431211,-0.66527605,-55.55741119,0.01181601,0.01254300,0.00401913,0.00370579,0.00109554,-0.02794208,0.00992594,-0.00101384,-9.74293232,0.29022136,0.00062073,0.03335667,0.01488808,0.00163457,9.77628899,-0.27533329,1.00936508,0.00000000
S,-0.5,1730147697386926080,,-0.00009732,-0.99403489,0.03079475,-0.00582692,-0.02045638,0.01278372,-0.00000068,-0.00099561,0.00003110,-0.00000554,-0.00002024,0.00001361,,,,,,,,,,,,,,,,,,,,,,,
S,-0.5,1730147697387923712,,-0.00001580,-0.99432182,0.03059488,-0.00297195,-0.02094513,0.01344493,-0.00000025,-0.00099369,0.00003086,-0.00000444,-0.00002028,0.00001241,,,,,,,,,,,,,,,,,,,,,,,
S,-0.5,1730147697387766528,,,,,,,,,,,,,,0.20815232,0.21396811,-0.68431979,-0.66527945,-55.55741119,0.01181601,0.01254300,0.00401913,0.00370579,-0.00158759,-0.02430685,0.01274482,0.01647394,-9.75294685,0.28956309,0.01831604,0.02334213,0.01423451,0.00184210,9.77628899,-0.27532858,1.00936508,0.00000000
S,-0.5,1730147697388920832,,-0.00164617,-0.99250960,0.02769290,-0.00302749,-0.01877755,0.01738189,-0.00000132,-0.00099293,0.00002816,-0.00000211,-0.00001933,0.00001688,,,,,,,,,,,,,,,,,,,,,,,
S,-0.5,1730147697389917184,,0.00076220,-0.99541873,0.02753615,-0.00300670,-0.01257217,0.01697447,-0.00000019,-0.00099431,0.00002664,-0.00000303,-0.00001301,0.00001830,,,,,,,,,,,,,,,,,,,,,,,
S,-0.5,1730147697389763072,,,,,,,,,,,,,,0.20814405,0.21394448,-0.68432558,-0.66528368,-55.55741119,0.01181601,0.01254300,0.00401913,0.00370579,-0.00282587,-0.02267971,0.00928432,-0.00240339,-9.74475574,0.30267856,-0.00035901,0.03153515,0.02739277,0.00204438,9.77629089,-0.27528578,1.00936508,0.00000000
S,-0.5,1730147697390912768,,0.00186668,-0.99620628,0.02747522,-0.00260367,-0.01267796,0.02031345,0.00000243,-0.00099699,0.00002744,-0.00000267,-0.00001068,0.00001958,,,,,,,,,,,,,,,,,,,,,,,
S,-0.5,1730147697391907328,,0.00179817,-0.99778336,0.02577290,0.00056314,-0.01407381,0.02168157,0.00000216,-0.00099775,0.00002606,0.00000012,-0.00001385,0.00002250,,,,,,,,,,,,,,,,,,,,,,,
S,-0.5,1730147697391757824,,,,,,,,,,,,,,0.20813961,0.21392301,-0.68433076,-0.66528666,-55.55741119,0.01181601,0.01254300,0.00401913,0.00370579,-0.00141047,-0.01540452,0.01517678,-0.00190706,-9.75088310,0.26125723,0.00036613,0.02540874,-0.01398715,0.00227319,9.77629185,-0.27524439,1.00936508,0.00000000
S,-0.5,1730147697392901376,,0.00203736,-0.99846649,0.02488208,0.00525103,-0.01165495,0.02058634,0.00000197,-0.00099884,0.00002450,0.00000541,-0.00001254,0.00002122,,,,,,,,,,,,,,,,,,,,,,,
S,-0.5,1730147697393898752,,0.00138233,-0.99886417,0.02504381,0.00364842,-0.00699792,0.02018017,0.00000158,-0.00099901,0.00002473,0.00000543,-0.00000707,0.00001991,,,,,,,,,,,,,,,,,,,,,,,
S,-0.5,1730147697393755648,,,,,,,,,,,,,,0.20814024,0.21390069,-0.68433785,-0.66528636,-55.55741119,0.01181601,0.01254300,0.00401913,0.00370579,0.00173375,-0.01624871,0.01937094,0.02120155,-9.78456211,0.25559103,0.02380380,-0.00827122,-0.01965600,0.00260226,9.77629089,-0.27524704,1.00936508,0.00000000
S,-0.5,1730147697394895616,,0.00088601,-0.99837023,0.02761618,0.00140665,-0.01234570,0.02032808,0.00000077,-0.00099859,0.00002720,0.00000130,-0.00000989,0.00002017,,,,,,,,,,,,,,,,,,,,,,,
S,-0.5,1730147697395891456,,-0.00084239,-1.00012124,0.02734650,0.00184691,-0.01546289,0.02584122,-0.00000069,-0.00099965,0.00002821,0.00000105,-0.00001660,0.00002489,,,,,,,,,,,,,,,,,,,,,,,
S,-0.5,1730147697395751936,,,,,,,,,,,,,,0.20814252,0.21388067,-0.68434733,-0.66528237,-55.55741119,0.01181601,0.01254300,0.00401913,0.00370579,0.00704949,-0.00946896,0.01678046,0.01547076,-9.79693604,0.24252698,0.01841929,-0.02064705,-0.03280541,0.00294853,9.77628899,-0.27533239,1.00936508,0.00000000
S,-0.5,1730147697396886784,,-0.00099167,-0.99930543,0.02721908,0.00105547,-0.00803368,0.02679403,-0.00000152,-0.00100001,0.00002716,0.00000134,-0.00001038,0.00002838,,,,,,,,,,,,,,,,,,,,,,,
S,-0.5,1730147697397881088,,-0.00037886,-0.99794674,0.02506521,-0.00086949,-0.00854843,0.02422108,-0.00000054,-0.00099793,0.00002542,-0.00000077,-0.00000609,0.00002499,,,,,,,,,,,,,,,,,,,,,,,
S,-0.5,1730147697397746432,,,,,,,,,,,,,,0.20814456,0.21385902,-0.68435764,-0.66527808,-55.55741119,0.01181601,0.01254300,0.00401913,0.00370579,0.00267104,-0.01899363,0.02176173,-0.00673434,-9.80317688,0.27668756,-0.00341681,-0.02689075,0.00126010,0.00331753,9.77628613,-0.27542746,1.00936508,0.00000000
S,-0.5,1730147697398879744,,0.00106170,-0.99835879,0.02418366,0.00198878,-0.00866248,0.02794286,0.00000099,-0.00099785,0.00002366,0.00000086,-0.00000881,0.00002645,,,,,,,,,,,,,,,,,,,,,,,
S,-0.5,1730147697399878656,,0.00157672,-0.99844062,0.02226473,0.00448885,-0.01078082,0.02652734,0.00000194,-0.00099856,0.00002233,0.00000494,-0.00001043,0.00002797,,,,,,,,,,,,,,,,,,,,,,,
S,-0.5,1730147697399745792,,,,,,,,,,,,,,0.20814927,0.21383528,-0.68436629,-0.66527522,-55.55741119,0.01181601,0.01254300,0.00401913,0.00370579,0.00084602,-0.00848497,0.02186696,-0.00527062,-9.78638840,0.24924400,-0.00153395,-0.01010513,-0.02621961,0.00373667,9.77628326,-0.27546361,1.00936508,0.00000000
S,-0.5,1730147697400877056,,-0.00091928,-0.99925971,0.02174428,0.00567435,-0.00690480,0.02379066,-0.00000030,-0.00099914,0.00002123,0.00000625,-0.00000828,0.00002384,,,,,,,,,,,,,,,,,,,,,,,
S,-0.5,1730147697401874432,,-0.00120651,-1.00194395,0.02192148,-0.00098442,-0.00457212,0.02421170,-0.00000195,-0.00100172,0.00002172,0.00000060,-0.00000376,0.00002326,,,,,,,,,,,,,,,,,,,,,,,
S,-0.5,1730147697401743360,,,,,,,,,,,,,,0.20815672,0.21381298,-0.68437594,-0.66527009,-55.55741119,0.01181601,0.01254300,0.00401913,0.00370579,0.00656213,-0.01282709,0.02484432,0.01904026,-9.79249859,0.21901305,0.02322754,-0.01621723,-0.05652328,0.00418728,9.77628136,-0.27553633,1.00936508,0.00000000
S,-0.5,1730147697402871040,,0.00085992,-1.00098515,0.02210241,-0.00345111,-0.00392567,0.02575987,0.00000039,-0.00100201,0.00002213,-0.00000512,-0.00000330,0.00002561,,,,,,,,,,,,,,,,,,,,,,,
S,-0.5,1730147697403866624,,-0.00031632,-0.99943644,0.02255192,-0.00076093,-0.00654398,0.02699631,0.00000056,-0.00099941,0.00002253,-0.00000203,-0.00000586,0.00002726,,,,,,,,,,,,,,,,,,,,,,,
S,-0.5,1730147697403739136,,,,,,,,,,,,,,0.20816426,0.21379220,-0.68438572,-0.66526449,-55.55741119,0.01181601,0.01254300,0.00401913,0.00370579,0.00222046,-0.00615704,0.02013920,-0.01911099,-9.82348824,0.21303129,-0.01448912,-0.04720783,-0.06258944,0.00462187,9.77628040,-0.27562073,1.00936508,0.00000000
S,-0.5,1730147697404861440,,-0.00185595,-0.99894714,0.02381459,-0.00104920,-0.00803465,0.03155484,-0.00000195,-0.00099854,0.00002373,-0.00000014,-0.00000860,0.00003112,,,,,,,,,,,,,,,,,,,,,,,
S,-0.5,1730147697405859072,,-0.00228498,-1.00053537,0.02304235,-0.00361412,-0.00748056,0.03366387,-0.00000270,-0.00100009,0.00002358,-0.00000324,-0.00000806,0.00003473,,,,,,,,,,,,,,,,,,,,,,,
S,-0.5,1730147697405736960,,,,,,,,,,,,,,0.20817386,0.21377245,-0.68439257,-0.66526079,-55.55741119,0.01181601,0.01254300,0.00401913,0.00370579,-0.00041718,-0.00825733,0.02413957,0.00544285,-9.80088902,0.22092520,0.01049347,-0.02460861,-0.05471359,0.00505062,9.77628040,-0.27563879,1.00936508,0.00000000
S,-0.5,1730147697406855936,,-0.00089408,-1.00121570,0.02440129,-0.00230152,-0.01345961,0.03380665,-0.00000128,-0.00100160,0.00002391,-0.00000336,-0.00001220,0.00003445,,,,,,,,,,,,,,,,,,,,,,,
S,-0.5,1730147697407852288,,-0.00243550,-1.00041974,0.02295660,-0.00254602,-0.00324287,0.03080850,-0.00000171,-0.00100078,0.00002365,-0.00000208,-0.00000700,0.00003140,,,,,,,,,,,,,,,,,,,,,,,
S,-0.5,1730147697407733248,,,,,,,,,,,,,,0.20818621,0.21374694,-0.68439978,-0.66525769,-55.55741119,0.01181601,0.01254300,0.00401913,0.00370579,-0.00162217,-0.01045059,0.03160682,-0.02645246,-9.80754375,0.23128316,-0.02086203,-0.03126431,-0.04433566,0.00559043,9.77627945,-0.27561882,1.00936508,0.00000000
S,-0.5,1730147697408848128,,-0.00233884,-1.00029492,0.02143463,-0.00497164,0.00050505,0.02866794,-0.00000285,-0.00100006,0.00002125,-0.00000461,0.00000308,0.00002810,,,,,,,,,,,,,,,,,,,,,,,
S,-0.5,1730147697409842944,,-0.00309989,-1.00098825,0.02079733,-0.00449373,0.00066533,0.02945805,-0.00000293,-0.00100082,0.00002043,-0.00000535,0.00000183,0.00002863,,,,,,,,,,,,,,,,,,,,,,,
S,-0.5,1730147697409728256,,,,,,,,,,,,,,0.20819956,0.21371962,-0.68440753,-0.66525429,-56.03831100,0.01181601,0.01254300,0.00401913,0.00370579,-0.00046610,-0.00939719,0.02827379,-0.01679354,-9.81430817,0.23194449,-0.01062308,-0.03802872,-0.04365404,0.00617045,9.77627945,-0.27559853,0.52846527,0.00000000
S,-0.5,1730147697410837248,,-0.00501871,-1.00091875,0.02349812,-0.00300845,0.00309161,0.02960631,-0.00000491,-0.00100115,0.00002280,-0.00000313,0.00000270,0.00002983,,,,,,,,,,,,,,,,,,,,,,,
S,-0.5,1730147697411840768,,-0.00501412,-0.99974281,0.02684959,-0.00727052,0.00206314,0.02836416,-0.00000563,-0.00099993,0.00002710,-0.00000602,0.00000302,0.00002864,,,,,,,,,,,,,,,,,,,,,,,
S,-0.5,1730147697411732224,,,,,,,,,,,,,,0.20821449,0.21369746,-0.68441290,-0.66525120,-56.03831100,0.01181601,0.01254300,0.00401913,0.00370579,-0.00373496,-0.00056565,0.02550825,-0.02874216,-9.81471729,0.20033613,-0.02204881,-0.03843689,-0.07522145,0.00669335,9.77628040,-0.27555758,0.52846527,0.00000000
S,-0.5,1730147697412844544,,-0.00441025,-0.99901974,0.02396779,-0.00862219,0.00412938,0.02837794,-0.00000452,-0.00099878,0.00002556,-0.00000973,0.00000343,0.00002798,,,,,,,,,,,,,,,,,,,,,,,
S,-0.5,1730147697413848320,,-0.00584335,-0.99903494,0.02564228,-0.01177473,0.00954296,0.03174701,-0.00000539,-0.00099880,0.00002442,-0.00001163,0.00000922,0.00003114,,,,,,,,,,,,,,,,,,,,,,,
S,-0.5,1730147697413736448,,,,,,,,,,,,,,0.20823236,0.21367918,-0.68441564,-0.66524869,-56.03831100,0.01181601,0.01254300,0.00401913,0.00370579,-0.00440567,0.00062745,0.02551215,-0.05516866,-9.80600643,0.26576132,-0.04797660,-0.02972317,-0.00971586,0.00719206,9.77628326,-0.27547717,0.52846527,0.00000000
S,-0.5,1730147697414851328,,-0.00815369,-1.00070083,0.02725513,-0.01680939,0.00562320,0.03010968,-0.00000819,-0.00100040,0.00002749,-0.00001690,0.00000806,0.00003148,,,,,,,,,,,,,,,,,,,,,,,
S,-0.5,1730147697415853312,,-0.00621955,-1.00067282,0.02492596,-0.01238943,0.00369081,0.02831699,-0.00000731,-0.00100121,0.00002586,-0.00001480,0.00000279,0.00002812,,,,,,,,,,,,,,,,,,,,,,,
S,-0.5,1730147697415738880,,,,,,,,,,,,,,0.20825425,0.21366183,-0.68441576,-0.66524726,-56.03831100,0.01181601,0.01254300,0.00401913,0.00370579,-0.01001451,0.00682221,0.02801438,-0.05286798,-9.79490185,0.23948403,-0.04515069,-0.01861572,-0.03585206,0.00771729,9.77628613,-0.27533609,0.52846527,0.00000000
S,-0.5,1730147697416854528,,-0.00543422,-1.00093877,0.02639601,-0.01254788,0.00823110,0.02454372,-0.00000496,-0.00100088,0.00002539,-0.00001111,0.00000679,0.00002466,,,,,,,,,,,,,,,,,,,,,,,
S,-0.5,1730147697417854976,,-0.00418893,-1.00161469,0.02572759,-0.01214208,0.01092563,0.02372983,-0.00000417,-0.00100158,0.00002632,-0.00001227,0.00001188,0.00002268,,,,,,,,,,,,,,,,,,,,,,,
S,-0.5,1730147697417739520,,,,,,,,,,,,,,0.20827682,0.21364368,-0.68441296,-0.66524893,-56.03831100,0.01181601,0.01254300,0.00401913,0.00370579,-0.01317737,0.00039936,0.02499664,-0.07164807,-9.81849670,0.25362661,-0.06341079,-0.04220486,-0.02148211,0.00823728,9.77629185,-0.27510872,0.52846527,0.00000000
S,-0.5,1730147697418854912,,-0.00705995,-0.99905515,0.02617168,-0.01010788,0.01514355,0.02301297,-0.00000614,-0.00099974,0.00002588,-0.00001035,0.00001523,0.00002288,,,,,,,,,,,,,,,,,,,,,,,
S,-0.5,1730147697419853824,,-0.00719972,-1.00164175,0.02596305,-0.00833599,0.01216528,0.02296099,-0.00000809,-0.00100036,0.00002614,-0.00000801,0.00001405,0.00002274,,,,,,,,,,,,,,,,,,,,,,,
S,-0.5,1730147697419738624,,,,,,,,,,,,,,0.20829757,0.21362925,-0.68440878,-0.66525137,-56.03831100,0.01181601,0.01254300,0.00401913,0.00370579,-0.01064856,0.00948643,0.01955174,-0.04084523,-9.82211113,0.25808033,-0.03216929,-0.04581261,-0.01679575,0.00867594,9.77629852,-0.27487609,0.52846527,0.00000000
S,-0.5,1730147697420851968,,-0.00502500,-1.00284004,0.02467944,-0.01052690,0.01374216,0.02099918,-0.00000546,-0.00100345,0.00002485,-0.00000956,0.00001251,0.00002134,,,,,,,,,,,,,,,,,,,,,,,
S,-0.5,1730147697421849088,,-0.00300434,-1.00432611,0.02573827,-0.01184153,0.01627603,0.02489135,-0.00000268,-0.00100444,0.00002514,-0.00001230,0.00001632,0.00002356,,,,,,,,,,,,,,,,,,,,,,,
S,-0.5,1730147697421735680,,,,,,,,,,,,,,0.20831965,0.21362109,-0.68440509,-0.66525090,-56.03831100,0.01181601,0.01254300,0.00401913,0.00370579,-0.00639272,0.01165416,0.01961736,-0.07931796,-9.81015301,0.25637051,-0.07025378,-0.03384972,-0.01833802,0.00906418,9.77630329,-0.27470854,0.52846527,0.00000000
S,-0.5,1730147697422845440,,-0.00253074,-1.00502408,0.02452593,-0.00786194,0.01846211,0.01995763,-0.00000197,-0.00100537,0.00002508,-0.00000900,0.00001887,0.00002209,,,,,,,,,,,,,,,,,,,,,,,
S,-0.5,1730147697423843584,,-0.00107965,-1.00533068,0.02396490,-0.00820780,0.01747161,0.01901473,-0.00000119,-0.00100550,0.00002368,-0.00000688,0.00001835,0.00001762,,,,,,,,,,,,,,,,,,,,,,,
S,-0.5,1730147697423740160,,,,,,,,,,,,,,0.20834355,0.21361412,-0.68440104,-0.66524982,-56.03831100,0.01181601,0.01254300,0.00401913,0.00370579,-0.01068237,0.01392273,0.02043483,-0.02627626,-9.85016727,0.24651042,-0.01681335,-0.07386017,-0.02803123,0.00946292,9.77630711,-0.27454165,0.52846527,0.00000000
S,-0.5,1730147697424846592,,-0.00187593,-1.00497782,0.02441533,-0.01003749,0.01632144,0.01824187,-0.00000127,-0.00100514,0.00002415,-0.00000982,0.00001622,0.00001808,,,,,,,,,,,,,,,,,,,,,,,
S,-0.5,1730147697425848832,,-0.00146199,-1.00478208,0.02403208,-0.01201095,0.01515303,0.01663619,-0.00000179,-0.00100471,0.00002424,-0.00001223,0.00001500,0.00001668,,,,,,,,,,,,,,,,,,,,,,,
S,-0.5,1730147697425743104,,,,,,,,,,,,,,0.20836709,0.21361044,-0.68439633,-0.66524845,-56.03831100,0.01181601,0.01254300,0.00401913,0.00370579,-0.00526053,0.01595257,0.01449070,-0.01169119,-9.86055946,0.23223233,-0.00187850,-0.08424854,-0.04215309,0.00981268,9.77631092,-0.27438542,0.52846527,0.00000000
S,-0.5,1730147697426850560,,-0.00135586,-1.00533891,0.02297896,-0.01723319,0.01430249,0.01528581,-0.00000124,-0.00100518,0.00002305,-0.00001691,0.00001409,0.00001502,,,,,,,,,,,,,,,,,,,,,,,
S,-0.5,1730147697427851264,,-0.00066324,-1.00540042,0.02213736,-0.01659894,0.01426754,0.01540950,-0.00000076,-0.00100557,0.00002195,-0.00001838,0.00001400,0.00001496,,,,,,,,,,,,,,,,,,,,,,,
S,-0.5,1730147697427744512,,,,,,,,,,,,,,0.20838790,0.21360868,-0.68439108,-0.66524792,-56.03831100,0.01181601,0.01254300,0.00401913,0.00370579,-0.01061710,0.01260435,0.01355703,-0.01755920,-9.85279179,0.23776114,-0.00746437,-0.07647610,-0.03646868,0.01009483,9.77631569,-0.27422982,0.52846527,0.00000000
S,-0.5,1730147697428851456,,-0.00162605,-1.00543368,0.02077240,-0.01562060,0.01348099,0.01268045,-0.00000123,-0.00100545,0.00002075,-0.00001560,0.00001361,0.00001322,,,,,,,,,,,,,,,,,,,,,,,
S,-0.5,1730147697429850880,,-0.00024049,-1.00464880,0.02115240,-0.01794554,0.01129214,0.01536969,-0.00000080,-0.00100480,0.00002065,-0.00001721,0.00001144,0.00001401,,,,,,,,,,,,,,,,,,,,,,,
S,-0.5,1730147697429745152,,,,,,,,,,,,,,0.20840755,0.21360520,-0.68438214,-0.66525203,-56.03831100,0.01181601,0.01254300,0.00401913,0.00370579,-0.01675877,0.01160830,0.01183230,-0.00740695,-9.86123753,0.21530433,0.00294292,-0.08491516,-0.05865823,0.01034987,9.77632236,-0.27396256,0.52846527,0.00000000
S,-0.5,1730147697430850816,,-0.00014945,-1.00410187,0.02075588,-0.01909111,0.00973439,0.01347843,0.00000027,-0.00100395,0.00002095,-0.00001962,0.00000932,0.00001468,,,,,,,,,,,,,,,,,,,,,,,
S,-0.5,1730147697431849728,,-0.00051705,-1.00342631,0.01990785,-0.01827805,0.01239859,0.01111914,-0.00000042,-0.00100338,0.00001994,-0.00001879,0.00001142,0.00001095,,,,,,,,,,,,,,,,,,,,,,,
S,-0.5,1730147697431744256,,,,,,,,,,,,,,0.20842563,0.21360092,-0.68437165,-0.66525853,-56.03831100,0.01181601,0.01254300,0.00401913,0.00370579,-0.01559401,0.00904461,0.01088751,-0.00783322,-9.85374165,0.20249498,0.00274428,-0.07741070,-0.07115111,0.01057751,9.77633095,-0.27364609,0.52846527,0.00000000
S,-0.5,1730147697432848128,,-0.00104146,-1.00366461,0.02180723,-0.01828572,0.01618636,0.00996681,-0.00000106,-0.00100341,0.00002119,-0.00001803,0.00001635,0.00000943,,,,,,,,,,,,,,,,,,,,,,,
S,-0.5,1730147697433845504,,-0.00107007,-1.00130427,0.02078059,-0.01854266,0.01886546,0.00397913,-0.00000123,-0.00100181,0.00002157,-0.00001850,0.00001958,0.00000470,,,,,,,,,,,,,,,,,,,,,,,
S,-0.5,1730147697433741824,,,,,,,,,,,,,,0.20844153,0.21359712,-0.68436086,-0.66526586,-56.03831100,0.01181601,0.01254300,0.00401913,0.00370579,-0.01717273,0.00902382,0.00782090,-0.00412840,-9.83974743,0.19550323,0.00663652,-0.06340790,-0.07782242,0.01076492,9.77633953,-0.27332565,0.52846527,0.00000000
S,-0.5,1730147697434842112,,-0.00198157,-1.00103700,0.02196464,-0.01983301,0.01374261,0.00399753,-0.00000182,-0.00100033,0.00002142,-0.00001968,0.00001553,0.00000209,,,,,,,,,,,,,,,,,,,,,,,
S,-0.5,1730147697435840512,,-0.00090266,-0.99969029,0.02098935,-0.02211702,0.01445027,0.00638164,-0.00000139,-0.00099985,0.00002154,-0.00002211,0.00001269,0.00000595,,,,,,,,,,,,,,,,,,,,,,,
S,-0.5,1730147697435740672,,,,,,,,,,,,,,0.20845726,0.21359907,-0.68434781,-0.66527373,-56.03831100,0.01181601,0.01254300,0.00401913,0.00370579,-0.01688073,0.01718952,0.00157535,-0.01207592,-9.82438946,0.21154580,-0.00121190,-0.04804134,-0.06144676,0.01086402,9.77634811,-0.27299255,0.52846527,0.00000000
S,-0.5,1730147697436843264,,-0.00066612,-0.99704301,0.02107446,-0.01889818,0.00780356,0.00646080,-0.00000037,-0.00099710,0.00002075,-0.00002021,0.00000924,0.00000721,,,,,,,,,,,,,,,,,,,,,,,
S,-0.5,1730147697437844992,,-0.00240316,-0.99791712,0.02166805,-0.01994197,0.00688085,0.00413807,-0.00000201,-0.00099692,0.00002159,-0.00001873,0.00000493,0.00000459,,,,,,,,,,,,,,,,,,,,,,,
S,-0.5,1730147697437742848,,,,,,,,,,,,,,0.20847212,0.21360281,-0.68433297,-0.66528314,-56.03831100,0.01181601,0.01254300,0.00401913,0.00370579,-0.02049507,0.01029620,0.00282945,-0.01362287,-9.80517769,0.21126704,-0.00270843,-0.02881908,-0.06135927,0.01091445,9.77635860,-0.27262631,0.52846527,0.00000000
S,-0.5,1730147697438846464,,-0.00247168,-0.99837208,0.02164121,-0.01805516,0.00829914,0.00258407,-0.00000301,-0.00099857,0.00002184,-0.00001873,0.00000775,0.00000213,,,,,,,,,,,,,,,,,,,,,,,
S,-0.5,1730147697439846912,,-0.00202507,-0.99854010,0.02052416,-0.01640316,0.00954896,0.00108181,-0.00000213,-0.00099865,0.00002072,-0.00001610,0.00000977,0.00000086,,,,,,,,,,,,,,,,,,,,,,,
S,-0.5,1730147697439743744,,,,,,,,,,,,,,0.20848195,0.21360169,-0.68431956,-0.66529417,-56.03831100,0.01181601,0.01254300,0.00401913,0.00370579,-0.01711004,0.00253793,0.00146041,-0.01973133,-9.77640343,0.21170023,-0.00877141,-0.00003529,-0.06055889,0.01095992,9.77636814,-0.27225912,0.52846527,0.00000000
S,-0.5,1730147697440846848,,-0.00235033,-0.99985152,0.01836109,-0.01299086,0.00799644,0.00342011,-0.00000215,-0.00099967,0.00001840,-0.00001308,0.00000868,0.00000252,,,,,,,,,,,,,,,,,,,,,,,
S,-0.5,1730147697441845760,,-0.00217964,-0.99918902,0.01867436,-0.01409011,0.00629753,0.00392402,-0.00000231,-0.00099973,0.00001793,-0.00001280,0.00000611,0.00000458,,,,,,,,,,,,,,,,,,,,,,,
S,-0.5,1730147697441746432,,,,,,,,,,,,,,0.20848845,0.21360198,-0.68430793,-0.66530401,-56.03831100,0.01181601,0.01254300,0.00401913,0.00370579,-0.01448503,0.00737848,-0.00226479,-0.02086778,-9.79345417,0.20318191,-0.00991282,-0.01707745,-0.06876825,0.01095496,9.77637672,-0.27195016,0.52846527,0.00000000
S,-0.5,1730147697442847488,,-0.00185083,-0.99826843,0.01879699,-0.01077418,0.00453210,0.00419055,-0.00000186,-0.00099822,0.00001887,-0.00001173,0.00000431,0.00000430,,,,,,,,,,,,,,,,,,,,,,,
S,-0.5,1730147697443848192,,-0.00258635,-0.99806303,0.01795237,-0.01159211,0.00716740,0.00088529,-0.00000235,-0.00099781,0.00001814,-0.00001039,0.00000613,0.00000157,,,,,,,,,,,,,,,,,,,,,,,
S,-0.5,1730147697443747328,,,,,,,,,,,,,,0.20849472,0.21360327,-0.68429816,-0.66531169,-56.03831100,0.01181601,0.01254300,0.00401913,0.00370579,-0.01118652,0.00371717,0.00145189,-0.02269610,-9.80397129,0.17582291,-0.01174639,-0.02758694,-0.09587592,0.01094971,9.77638435,-0.27169883,0.52846527,0.00000000
S,-0.5,1730147697444848128,,-0.00188318,-0.99811625,0.01673592,-0.00840470,0.00996094,0.00204438,-0.00000225,-0.00099804,0.00001669,-0.00000924,0.00001029,0.00000078,,,,,,,,,,,,,,,,,,,,,,,
S,-0.5,1730147697445847296,,-0.00399168,-1.00134146,0.01654681,-0.00546402,0.00378123,0.00336328,-0.00000338,-0.00100077,0.00001619,-0.00000498,0.00000579,0.00000349,,,,,,,,,,,,,,,,,,,,,,,
S,-0.5,1730147697445746688,,,,,,,,,,,,,,0.20849937,0.21360371,-0.68429071,-0.66531771,-56.03831100,0.01181601,0.01254300,0.00401913,0.00370579,-0.00877032,0.00373179,-0.00155423,-0.02302427,-9.78514671,0.17794140,-0.01207339,-0.00875759,-0.09356283,0.01095088,9.77638912,-0.27150422,0.52846527,0.00000000
S,-0.5,1730147697446845696,,-0.00410324,-0.99963105,0.01670718,-0.00251807,0.00250405,0.00330492,-0.00000475,-0.00100097,0.00001662,-0.00000212,0.00000077,0.00000374,,,,,,,,,,,,,,,,,,,,,,,
S,-0.5,1730147697447843328,,-0.00477679,-1.00066972,0.01969574,-0.00273321,0.00128394,0.00548421,-0.00000469,-0.00099994,0.00001920,-0.00000176,0.00000110,0.00000507,,,,,,,,,,,,,,,,,,,,,,,
S,-0.5,1730147697447744512,,,,,,,,,,,,,,0.20850271,0.21360523,-0.68428582,-0.66532123,-56.03831100,0.01181601,0.01254300,0.00401913,0.00370579,-0.00336603,0.00339839,0.00036772,-0.03319529,-9.81422615,0.15881205,-0.02225403,-0.03783321,-0.11257342,0.01094126,9.77639294,-0.27138546,0.52846527,0.00000000
S,-0.5,1730147697448840192,,-0.00539717,-1.00073135,0.01976279,-0.00190787,0.00471088,0.00259369,-0.00000550,-0.00100105,0.00002070,-0.00000213,0.00000370,0.00000381,,,,,,,,,,,,,,,,,,,,,,,
S,-0.5,1730147697449842176,,-0.00515093,-0.99935323,0.01884006,0.00053367,0.00540685,0.00138050,-0.00000539,-0.00099962,0.00001903,0.00000035,0.00000637,0.00000068,,,,,,,,,,,,,,,,,,,,,,,
S,-0.5,1730147697449746688,,,,,,,,,,,,,,0.20850457,0.21360476,-0.68428469,-0.66532195,-55.53098679,0.01181601,0.01254300,0.00401913,0.00370579,-0.00013870,-0.00129577,0.00194479,-0.04599359,-9.80602837,0.18832515,-0.03502901,-0.02963543,-0.08302651,0.01096458,9.77639294,-0.27135167,1.03578949,0.00000000
S,-0.5,1730147697450843648,,-0.00608824,-1.00025356,0.02058728,0.00257025,0.00928388,-0.00046701,-0.00000584,-0.00099965,0.00001998,0.00000298,0.00000880,-0.00000052,,,,,,,,,,,,,,,,,,,,,,,
S,-0.5,1730147697451844096,,-0.00551470,-1.00090754,0.02007827,0.00754719,0.00857952,-0.00226267,-0.00000592,-0.00100108,0.00002073,0.00000729,0.00000994,-0.00000252,,,,,,,,,,,,,,,,,,,,,,,
S,-0.5,1730147697451747328,,,,,,,,,,,,,,0.20850512,0.21360601,-0.68428499,-0.66532111,-55.53098679,0.01181601,0.01254300,0.00401913,0.00370579,0.00197048,0.00397638,-0.00244405,-0.05288612,-9.80295563,0.18661326,-0.04192591,-0.02656174,-0.08475563,0.01096021,9.77639389,-0.27136889,1.03578949,0.00000000
S,-0.5,1730147697452843776,,-0.00605697,-0.99880147,0.02072805,0.00888741,0.01217522,0.00341336,-0.00000578,-0.00099939,0.00002045,0.00001023,0.00001130,0.00000181,,,,,,,,,,,,,,,,,,,,,,,
S,-0.5,1730147697453842432,,-0.00520253,-0.99856102,0.02191686,0.00679691,0.01108412,0.00325429,-0.00000553,-0.00099793,0.00002191,0.00000760,0.00001243,0.00000509,,,,,,,,,,,,,,,,,,,,,,,
S,-0.5,1730147697453746176,,,,,,,,,,,,,,0.20850521,0.21361375,-0.68428653,-0.66531700,-55.53098679,0.01181601,0.01254300,0.00401913,0.00370579,0.00890889,0.00754674,-0.00564939,-0.05802691,-9.81719494,0.20326513,-0.04714249,-0.04080486,-0.06821010,0.01088442,9.77639008,-0.27147523,1.03578949,0.00000000
S,-0.5,1730147697454840320,,-0.00522246,-0.99898040,0.02117885,0.00803393,0.01327348,-0.00047234,-0.00000495,-0.00099883,0.00002169,0.00000714,0.00001253,0.00000015,,,,,,,,,,,,,,,,,,,,,,,
S,-0.5,1730147697455837440,,-0.00424097,-0.99949616,0.01985247,0.01030325,0.01084883,-0.00446522,-0.00000443,-0.00099954,0.00001986,0.00001028,0.00001199,-0.00000493,,,,,,,,,,,,,,,,,,,,,,,
S,-0.5,1730147697455743232,,,,,,,,,,,,,,0.20850806,0.21362275,-0.68429035,-0.66530931,-55.53098679,0.01181601,0.01254300,0.00401913,0.00370579,0.00922104,0.01003206,0.00196504,-0.05423719,-9.78639317,0.21483892,-0.04338425,-0.01000690,-0.05681318,0.01085295,9.77638626,-0.27165210,1.03578949,0.00000000
S,-0.5,1730147697456833792,,-0.00343378,-1.00006771,0.02183282,0.01193349,0.00931879,-0.00651120,-0.00000327,-0.00100013,0.00002105,0.00001236,0.00000882,-0.00000741,,,,,,,,,,,,,,,,,,,,,,,
S,-0.5,1730147697457829120,,-0.00271052,-0.99751496,0.02028618,0.01427495,0.00922563,-0.00730896,-0.00000258,-0.00099816,0.00002120,0.00001437,0.00000876,-0.00000782,,,,,,,,,,,,,,,,,,,,,,,
S,-0.5,1730147697457739264,,,,,,,,,,,,,,0.20851049,0.21363357,-0.68429470,-0.66530061,-55.53098679,0.01181601,0.01254300,0.00401913,0.00370579,0.01190238,0.00959140,-0.00805087,-0.04339657,-9.80210018,0.19474833,-0.03259755,-0.02571964,-0.07711048,0.01079902,9.77638054,-0.27185881,1.03578949,0.00000000
S,-0.5,1730147697458823680,,-0.00060734,-0.99695766,0.01698341,0.01143860,0.01035369,-0.00467197,-0.00000076,-0.00099625,0.00001709,0.00001270,0.00001012,-0.00000541,,,,,,,,,,,,,,,,,,,,,,,
S,-0.5,1730147697459821312,,0.00131713,-0.99739027,0.01598306,0.00967579,0.01239172,-0.00062178,0.00000164,-0.00099713,0.00001511,0.00000909,0.00001238,-0.00000052,,,,,,,,,,,,,,,,,,,,,,,
S,-0.5,1730147697459737088,,,,,,,,,,,,,,0.20850664,0.21364827,-0.68430030,-0.66529137,-55.53098679,0.01181601,0.01254300,0.00401913,0.00370579,0.01598615,0.00636067,-0.01094016,-0.02534979,-9.78861332,0.20787865,-0.01473206,-0.01224041,-0.06425196,0.01061773,9.77637291,-0.27213061,1.03578949,0.00000000
S,-0.5,1730147697460818432,,0.00077867,-0.99696374,0.01638762,0.01157315,0.01070333,-0.00387042,0.00000149,-0.00099718,0.00001600,0.00001067,0.00001166,-0.00000199,,,,,,,,,,,,,,,,,,,,,,,
S,-0.5,1730147697461814528,,0.00096745,-0.99488676,0.01657625,0.01164534,0.00839246,-0.00733988,0.00000076,-0.00099513,0.00001667,0.00001224,0.00000827,-0.00000774,,,,,,,,,,,,,,,,,,,,,,,
S,-0.5,1730147697461738752,,,,,,,,,,,,,,0.20850453,0.21366149,-0.68430591,-0.66528201,-55.53098679,0.01181601,0.01254300,0.00401913,0.00370579,0.01071094,0.00998564,-0.00364316,0.01604887,-9.77854633,0.14820994,0.02652815,-0.00218105,-0.12418149,0.01047928,9.77636528,-0.27239144,1.03578949,0.00000000
S,-0.5,1730147697462822912,,-0.00035841,-0.99296898,0.01664643,0.01657947,0.00692698,-0.00951778,-0.00000006,-0.00099266,0.00001669,0.00001571,0.00000646,-0.00001023,,,,,,,,,,,,,,,,,,,,,,,
S,-0.5,1730147697463830528,,-0.00009463,-0.99072009,0.01574726,0.01439998,0.00694137,-0.00929364,-0.00000056,-0.00099052,0.00001593,0.00001637,0.00000647,-0.00001003,,,,,,,,,,,,,,,,,,,,,,,
S,-0.5,1730147697463747072,,,,,,,,,,,,,,0.20850250,0.21367429,-0.68431085,-0.66527343,-55.53098679,0.01181601,0.01254300,0.00401913,0.00370579,0.01385386,0.00588004,-0.01086848,0.00747499,-9.75887585,0.16348554,0.01781640,0.01748371,-0.10914581,0.01034141,9.77635956,-0.27263135,1.03578949,0.00000000
S,-0.5,1730147697464837888,,-0.00165257,-0.98974687,0.01714376,0.01857407,0.00972711,-0.01157356,-0.00000129,-0.00098921,0.00001660,0.00001712,0.00000923,-0.00001109,,,,,,,,,,,,,,,,,,,,,,,
S,-0.5,1730147697465844224,,-0.00240955,-0.98934418,0.01733837,0.01869325,0.00951761,-0.01376499,-0.00000277,-0.00098911,0.00001775,0.00002000,0.00001044,-0.00001409,,,,,,,,,,,,,,,,,,,,,,,
S,-0.5,1730147697465753344,,,,,,,,,,,,,,0.20849451,0.21368915,-0.68431783,-0.66526395,-55.53098679,0.01181601,0.01254300,0.00401913,0.00370579,0.01798424,0.00407742,-0.01315250,-0.00553690,-9.71366692,0.15624963,0.00457250,0.06268406,-0.11669351,0.01010940,9.77635098,-0.27294314,1.03578949,0.00000000
S,-0.5,1730147697466849792,,-0.00096843,-0.99031687,0.01701289,0.01760260,0.00761005,-0.01168578,-0.00000147,-0.00099001,0.00001713,0.00001784,0.00000789,-0.00001276,,,,,,,,,,,,,,,,,,,,,,,
S,-0.5,1730147697467854336,,-0.00018057,-0.98735344,0.01975598,0.02463158,0.00906437,-0.01569552,0.00000014,-0.00098820,0.00001915,0.00002301,0.00000819,-0.00001431,,,,,,,,,,,,,,,,,,,,,,,
S,-0.5,1730147697467758592,,,,,,,,,,,,,,0.20848434,0.21370770,-0.68432647,-0.66525227,-55.53098679,0.01181601,0.01254300,0.00401913,0.00370579,0.02161795,0.00804755,-0.01721744,-0.02714164,-9.69983196,0.17404617,-0.01732604,0.07650757,-0.09928401,0.00981560,9.77633953,-0.27333018,1.03578949,0.00000000
S,-0.5,1730147697468858368,,-0.00063959,-0.98745006,0.01922257,0.02857041,0.01039482,-0.01676595,-0.00000031,-0.00098649,0.00002019,0.00003009,0.00001062,-0.00001785,,,,,,,,,,,,,,,,,,,,,,,
S,-0.5,1730147697469861376,,-0.00007536,-0.98706830,0.02018560,0.02858981,0.01081739,-0.01546712,-0.00000032,-0.00098717,0.00001984,0.00002984,0.00001116,-0.00001604,,,,,,,,,,,,,,,,,,,,,,,
S,-0.5,1730147697469761792,,,,,,,,,,,,,,0.20847261,0.21372898,-0.68433672,-0.66523856,-55.53098679,0.01181601,0.01254300,0.00401913,0.00370579,0.02462501,0.00579808,-0.01743004,0.00132519,-9.69094658,0.18784061,0.01080618,0.08538055,-0.08594200,0.00948099,9.77632713,-0.27378261,1.03578949,0.00000000
S,-0.5,1730147697470863616,,-0.00108217,-0.98827887,0.02096681,0.03109301,0.01328317,-0.01137223,-0.00000072,-0.00098794,0.00002113,0.00003064,0.00001297,-0.00001170,,,,,,,,,,,,,,,,,,,,,,,
S,-0.5,1730147697471865088,,-0.00251301,-0.98633522,0.01981895,0.03111729,0.01221784,-0.00766485,-0.00000257,-0.00098707,0.00002028,0.00003191,0.00001320,-0.00000704,,,,,,,,,,,,,,,,,,,,,,,
S,-0.5,1730147697471763712,,,,,,,,,,,,,,0.20845942,0.21375220,-0.68434995,-0.66522163,-55.53098679,0.01181601,0.01254300,0.00401913,0.00370579,0.03145775,0.00876925,-0.01916872,-0.00317868,-9.68081570,0.19457191,0.00594847,0.09549713,-0.07975876,0.00912714,9.77631283,-0.27433068,1.03578949,0.00000000
S,-0.5,1730147697472865792,,-0.00086213,-0.98890769,0.02005509,0.03555117,0.01154213,-0.00737390,-0.00000162,-0.00098782,0.00001965,0.00003475,0.00001133,-0.00000625,,,,,,,,,,,,,,,,,,,,,,,
S,-0.5,1730147697473865984,,-0.00156554,-0.98806757,0.02102333,0.03588920,0.01492224,-0.00740978,-0.00000091,-0.00098904,0.00002092,0.00003724,0.00001409,-0.00000731,,,,,,,,,,,,,,,,,,,,,,,
S,-0.5,1730147697473765632,,,,,,,,,,,,,,0.20844942,0.21377552,-0.68436641,-0.66520035,-55.53098679,0.01181601,0.01254300,0.00401913,0.00370579,0.03352737,0.01080142,-0.01015990,-0.02524139,-9.67988682,0.19884244,-0.01639552,0.09640789,-0.07612354,0.00884587,9.77629471,-0.27496597,1.03578949,0.00000000
S,-0.5,1730147697474866944,,-0.00096984,-0.98890680,0.02185932,0.03667432,0.01248002,-0.00433999,-0.00000130,-0.00098849,0.00002202,0.00003664,0.00001400,-0.00000491,,,,,,,,,,,,,,,,,,,,,,,
S,-0.5,1730147697475870464,,0.00181336,-0.98969173,0.02122727,0.03957853,0.01442454,-0.00607508,0.00000150,-0.00098982,0.00002161,0.00003930,0.00001329,-0.00000478,,,,,,,,,,,,,,,,,,,,,,,
S,-0.5,1730147697475769600,,,,,,,,,,,,,,0.20844254,0.21379758,-0.68438596,-0.66517532,-55.53098679,0.01181601,0.01254300,0.00401913,0.00370579,0.03885683,0.01169817,-0.01043553,-0.00894527,-9.69915962,0.20518234,-0.00029439,0.07711601,-0.07049122,0.00865088,9.77627563,-0.27567357,1.03578949,0.00000000
S,-0.5,1730147697476873472,,0.00090573,-0.99072784,0.02117480,0.04331982,0.02013232,-0.00747257,0.00000196,-0.00099079,0.00002098,0.00004356,0.00001971,-0.00000777,,,,,,,,,,,,,,,,,,,,,,,
S,-0.5,1730147697477875456,,0.00210204,-0.99189872,0.02168346,0.04563046,0.02128700,-0.00655388,0.00000160,-0.00099202,0.00002157,0.00004640,0.00002289,-0.00000717,,,,,,,,,,,,,,,,,,,,,,,
S,-0.5,1730147697477771776,,,,,,,,,,,,,,0.20843564,0.21381970,-0.68440819,-0.66514754,-55.53098679,0.01181601,0.01254300,0.00401913,0.00370579,0.04091847,0.01089900,-0.00790759,0.01468334,-9.70678139,0.21190628,0.02316108,0.06947231,-0.06454632,0.00847774,9.77625370,-0.27645260,1.03578949,0.00000000
S,-0.5,1730147697478876672,,0.00155222,-0.99346483,0.02181138,0.04682402,0.02386522,-0.00244036,0.00000203,-0.00099355,0.00002195,0.00004734,0.00002376,-0.00000290,,,,,,,,,,,,,,,,,,,,,,,
S,-0.5,1730147697479877120,,0.00009091,-0.99367815,0.02370457,0.04822541,0.02610643,-0.00238793,0.00000018,-0.00099414,0.00002340,0.00004835,0.00002652,-0.00000109,,,,,,,,,,,,,,,,,,,,,,,
S,-0.5,1730147697479772416,,,,,,,,,,,,,,0.20843083,0.21384564,-0.68443257,-0.66511565,-55.53098679,0.01181601,0.01254300,0.00401913,0.00370579,0.04801922,0.02049919,-0.01029052,0.01564867,-9.72835255,0.21157429,0.02395707,0.04787731,-0.06574729,0.00830840,9.77622986,-0.27732158,1.03578949,0.00000000
S,-0.5,1730147697480876800,,0.00145107,-0.99391222,0.02454375,0.04402235,0.02784996,0.00147911,0.00000074,-0.00099394,0.00002499,0.00004523,0.00002825,0.00000079,,,,,,,,,,,,,,,,,,,,,,,
S,-0.5,1730147697481875456,,0.00358683,-0.99438256,0.02632694,0.04530112,0.02719917,0.00362434,0.00000363,-0.00099437,0.00002627,0.00004373,0.00002787,0.00000447,,,,,,,,,,,,,,,,,,,,,,,
S,-0.5,1730147697481771520,,,,,,,,,,,,,,0.20843080,0.21387565,-0.68445897,-0.66507888,-55.53098679,0.01181601,0.01254300,0.00401913,0.00370579,0.04996842,0.02412504,-0.00421296,0.00177743,-9.74916267,0.22948933,0.00995671,0.02704048,-0.04878938,0.00817928,9.77620316,-0.27827871,1.03578949,0.00000000
S,-0.5,1730147697482873600,,0.00378216,-0.99611509,0.02774493,0.04810032,0.02522175,0.00371422,0.00000443,-0.00099595,0.00002806,0.00004800,0.00002537,0.00000438,,,,,,,,,,,,,,,,,,,,,,,
S,-0.5,1730147697483873280,,0.00256562,-0.99642998,0.02661083,0.05057692,0.02875318,0.00327161,0.00000285,-0.00099692,0.00002727,0.00005102,0.00002748,0.00000338,,,,,,,,,,,,,,,,,,,,,,,
S,-0.5,1730147697483771648,,,,,,,,,,,,,,0.20843659,0.21390304,-0.68448514,-0.66504121,-55.53098679,0.01181601,0.01254300,0.00401913,0.00370579,0.04534861,0.02547752,0.00134060,0.03561224,-9.75145340,0.25762010,0.04377694,0.02472210,-0.02159142,0.00816470,9.77617550,-0.27921152,1.03578949,0.00000000
S,-0.5,1730147697484872704,,0.00254705,-0.99797332,0.02833439,0.05087091,0.02914912,0.00668466,0.00000216,-0.00099779,0.00002766,0.00005161,0.00003020,0.00000592,,,,,,,,,,,,,,,,,,,,,,,
S,-0.5,1730147697485871104,,0.00085504,-0.99749315,0.02953032,0.04620912,0.03106604,0.00126119,0.00000116,-0.00099807,0.00002986,0.00004715,0.00003084,0.00000333,,,,,,,,,,,,,,,,,,,,,,,
S,-0.5,1730147697485770496,,,,,,,,,,,,,,0.20844395,0.21392952,-0.68451262,-0.66500211,-55.53098679,0.01181601,0.01254300,0.00401913,0.00370579,0.05263565,0.02508727,0.00025575,0.02793824,-9.77648640,0.26741260,0.03613297,-0.00033855,-0.01275614,0.00819473,9.77614784,-0.28016874,1.03578949,0.00000000
S,-0.5,1730147697486868736,,0.00136490,-0.99851960,0.03090184,0.04674604,0.03057108,0.00533812,0.00000073,-0.00099818,0.00003103,0.00004516,0.00003127,0.00000287,,,,,,,,,,,,,,,,,,,,,,,
S,-0.5,1730147697487868416,,0.00335825,-0.99831212,0.03114332,0.04920859,0.03019422,0.00781681,0.00000316,-0.00099868,0.00003154,0.00004893,0.00003011,0.00000866,,,,,,,,,,,,,,,,,,,,,,,
S,-0.5,1730147697487770624,,,,,,,,,,,,,,0.20845158,0.21395773,-0.68454081,-0.66496164,-55.53098679,0.01181601,0.01254300,0.00401913,0.00370579,0.04876739,0.02844894,0.00020811,0.01134402,-9.78773975,0.29283914,0.01955798,-0.01162052,0.01167974,0.00821396,9.77611923,-0.28115940,1.03578949,0.00000000
S,-0.5,1730147697488867584,,0.00186663,-0.99915785,0.03063164,0.04783493,0.02614489,0.01097423,0.00000277,-0.00099894,0.00003080,0.00004887,0.00002676,0.00001119,,,,,,,,,,,,,,,,,,,,,,,
S,-0.5,1730147697489865728,,0.00091904,-0.99917316,0.03051355,0.04661824,0.03161411,0.00986185,0.00000062,-0.00099944,0.00003037,0.00004640,0.00002933,0.00001107,,,,,,,,,,,,,,,,,,,,,,,
S,-0.5,1730147697489769216,,,,,,,,,,,,,,0.20846209,0.21398479,-0.68456858,-0.66492105,-55.53098679,0.01181601,0.01254300,0.00401913,0.00370579,0.05054979,0.02771027,0.00553928,0.03096834,-9.79367256,0.30926567,0.03925430,-0.01758003,0.02713606,0.00828596,9.77609253,-0.28212962,1.03578949,0.00000000
S,-0.5,1730147697490863104,,-0.00046078,-0.99847931,0.03003227,0.04743853,0.03403731,0.00681878,-0.00000051,-0.00099861,0.00003008,0.00004690,0.00003534,0.00000702,,,,,,,,,,,,,,,,,,,,,,,
S,-0.5,1730147697491859712,,0.00067917,-0.99894631,0.02892107,0.04566419,0.03352024,0.00783612,0.00000003,-0.00099864,0.00002897,0.00004625,0.00003439,0.00000668,,,,,,,,,,,,,,,,,,,,,,,
S,-0.5,1730147697491766272,,,,,,,,,,,,,,0.20847473,0.21400861,-0.68459707,-0.66488004,-56.19685364,0.01181601,0.01254300,0.00401913,0.00370579,0.04801974,0.02693661,0.00794413,0.00604500,-9.80115414,0.29784688,0.01447815,-0.02509117,0.01475367,0.00843315,9.77606297,-0.28309321,0.36992264,0.00000000
S,-0.5,1730147697492855552,,0.00208801,-1.00080466,0.02849370,0.04847257,0.03494053,0.01100296,0.00000219,-0.00100062,0.00002822,0.00004740,0.00003452,0.00001075,,,,,,,,,,,,,,,,,,,,,,,
S,-0.5,1730147697493850624,,0.00025887,-1.00169575,0.02725172,0.04772826,0.03360834,0.01402490,0.00000104,-0.00100213,0.00002734,0.00004876,0.00003430,0.00001448,,,,,,,,,,,,,,,,,,,,,,,
S,-0.5,1730147697493761536,,,,,,,,,,,,,,0.20848846,0.21403426,-0.68462402,-0.66483968,-56.19685364,0.01181601,0.01254300,0.00401913,0.00370579,0.04786537,0.03199067,0.00355775,0.00032228,-9.79331970,0.28409579,0.00888455,-0.01728439,0.00006509,0.00856227,9.77603531,-0.28403071,0.36992264,0.00000000
S,-0.5,1730147697494844928,,0.00005988,-1.00019443,0.02427007,0.04581394,0.03188632,0.01234647,-0.00000049,-0.00100075,0.00002442,0.00004592,0.00003178,0.00001361,,,,,,,,,,,,,,,,,,,,,,,
S,-0.5,1730147697495842560,,0.00074883,-1.00126386,0.02281711,0.04689287,0.03535966,0.01300908,0.00000056,-0.00100059,0.00002213,0.00004609,0.00003418,0.00001235,,,,,,,,,,,,,,,,,,,,,,,
S,-0.5,1730147697495759360,,,,,,,,,,,,,,0.20850480,0.21406065,-0.68465167,-0.66479772,-56.19685364,0.01181601,0.01254300,0.00401913,0.00370579,0.05037514,0.03190761,0.01135898,0.01019252,-9.82749367,0.26812804,0.01891889,-0.05148506,-0.01686081,0.00872637,9.77600861,-0.28498885,0.36992264,0.00000000
S,-0.5,1730147697496839680,,0.00298946,-1.00133455,0.02042956,0.04708498,0.03404026,0.01007817,0.00000280,-0.00100166,0.00002040,0.00004739,0.00003539,0.00001082,,,,,,,,,,,,,,,,,,,,,,,
S,-0.5,1730147697497836032,,0.00055528,-1.00253499,0.02326090,0.04902927,0.03111227,0.00917057,0.00000171,-0.00100234,0.00002199,0.00004874,0.00003122,0.00000840,,,,,,,,,,,,,,,,,,,,,,,
S,-0.5,1730147697497755648,,,,,,,,,,,,,,0.20852295,0.21408500,-0.68467987,-0.66475517,-56.19685364,0.01181601,0.01254300,0.00401913,0.00370579,0.04770518,0.03178561,0.00922955,0.00549569,-9.81245232,0.21704100,0.01444183,-0.03647137,-0.06890659,0.00894614,9.77598095,-0.28594759,0.36992264,0.00000000
S,-0.5,1730147697498831616,,-0.00002386,-1.00461507,0.02532534,0.04966840,0.02860177,0.00734540,-0.00000069,-0.00100462,0.00002585,0.00005017,0.00002813,0.00000739,,,,,,,,,,,,,,,,,,,,,,,
S,-0.5,1730147697499826176,,-0.00000007,-1.00284863,0.02448792,0.05003556,0.02861091,0.01381277,-0.00000019,-0.00100383,0.00002530,0.00005017,0.00002781,0.00001206,,,,,,,,,,,,,,,,,,,,,,,
S,-0.5,1730147697499755520,,,,,,,,,,,,,,0.20853800,0.21411037,-0.68470764,-0.66471356,-56.19685364,0.01181601,0.01254300,0.00401913,0.00370579,0.05035485,0.02882944,0.00527763,0.01677895,-9.82959175,0.21561489,0.02588424,-0.05364037,-0.07129183,0.00910528,9.77595139,-0.28690672,0.36992264,0.00000000
S,-0.5,1730147697500825088,,0.00076554,-1.00430000,0.02276505,0.04944034,0.02608386,0.01102198,0.00000063,-0.00100347,0.00002281,0.00004967,0.00002655,0.00001359,,,,,,,,,,,,,,,,,,,,,,,
S,-0.5,1730147697501826048,,0.00172703,-1.00371277,0.02329540,0.05144838,0.02456269,0.00846213,0.00000180,-0.00100428,0.00002265,0.00005089,0.00002403,0.00000804,,,,,,,,,,,,,,,,,,,,,,,
S,-0.5,1730147697501756928,,,,,,,,,,,,,,0.20855035,0.21413419,-0.68473744,-0.66467130,-56.19685364,0.01181601,0.01254300,0.00401913,0.00370579,0.05179000,0.02541527,0.00893185,-0.00185475,-9.84422493,0.24808080,0.00740501,-0.06830311,-0.03982402,0.00925976,9.77592182,-0.28790483,0.36992264,0.00000000
S,-0.5,1730147697502826752,,0.00031194,-1.00368476,0.02642420,0.04876093,0.02329754,0.00934622,0.00000088,-0.00100350,0.00002602,0.00004989,0.00002304,0.00000837,,,,,,,,,,,,,,,,,,,,,,,
S,-0.5,1730147697503826688,,0.00043050,-1.00244343,0.02741538,0.04376335,0.02406596,0.01125264,-0.00000004,-0.00100266,0.00002823,0.00004382,0.00002352,0.00001119,,,,,,,,,,,,,,,,,,,,,,,
S,-0.5,1730147697503756800,,,,,,,,,,,,,,0.20855990,0.21415596,-0.68476868,-0.66462910,-56.19685364,0.01181601,0.01254300,0.00401913,0.00370579,0.05251176,0.02163986,0.00491400,0.01761772,-9.84863758,0.22212778,0.02702642,-0.07274628,-0.06679638,0.00940870,9.77589130,-0.28892416,0.36992264,0.00000000
S,-0.5,1730147697504825600,,0.00236123,-1.00197816,0.02457576,0.04613667,0.02604312,0.00881073,0.00000205,-0.00100167,0.00002541,0.00004411,0.00002593,0.00000986,,,,,,,,,,,,,,,,,,,,,,,
S,-0.5,1730147697505824512,,0.00342816,-1.00291562,0.02263538,0.04640915,0.02367466,0.00524294,0.00000385,-0.00100260,0.00002208,0.00004712,0.00002473,0.00000511,,,,,,,,,,,,,,,,,,,,,,,
S,-0.5,1730147697505755904,,,,,,,,,,,,,,0.20856836,0.21417594,-0.68479818,-0.66458964,-56.19685364,0.01181601,0.01254300,0.00401913,0.00370579,0.04543362,0.02112877,0.00806280,-0.00040903,-9.83273697,0.27684876,0.00913900,-0.05687332,-0.01303226,0.00954803,9.77586365,-0.28988102,0.36992264,0.00000000
S,-0.5,1730147697506822656,,0.00382201,-1.00134778,0.02154120,0.04566480,0.02175988,-0.00340287,0.00000409,-0.00100193,0.00002112,0.00004589,0.00002135,-0.00000297,,,,,,,,,,,,,,,,,,,,,,,
S,-0.5,1730147697507820288,,0.00613013,-0.99897945,0.02115138,0.04793531,0.01867389,-0.00506697,0.00000584,-0.00099891,0.00002087,0.00004729,0.00001863,-0.00000752,,,,,,,,,,,,,,,,,,,,,,,
S,-0.5,1730147697507753728,,,,,,,,,,,,,,0.20857650,0.21419676,-0.68482602,-0.66455168,-56.19685364,0.01181601,0.01254300,0.00401913,0.00370579,0.04873278,0.02233951,0.00198899,0.03774843,-9.83211994,0.21657290,0.04740722,-0.05628395,-0.07422884,0.00965879,9.77583599,-0.29080173,0.36992264,0.00000000
S,-0.5,1730147697508817408,,0.00435157,-0.99889278,0.02084978,0.04359684,0.01597082,-0.00212123,0.00000541,-0.00099815,0.00002078,0.00004511,0.00001548,-0.00000319,,,,,,,,,,,,,,,,,,,,,,,
S,-0.5,1730147697509813504,,0.00394814,-0.99794579,0.01913234,0.04661226,0.01708747,-0.00065117,0.00000346,-0.00099809,0.00001935,0.00004468,0.00001602,0.00000002,,,,,,,,,,,,,,,,,,,,,,,
S,-0.5,1730147697509750528,,,,,,,,,,,,,,0.20857638,0.21422271,-0.68485349,-0.66451502,-56.19685364,0.01181601,0.01254300,0.00401913,0.00370579,0.04890354,0.01623026,-0.01064157,0.05723668,-9.79596806,0.20470440,0.06682231,-0.02016068,-0.08705127,0.00958563,9.77580738,-0.29175568,0.36992264,0.00000000
S,-0.5,1730147697510809088,,0.00351451,-0.99811465,0.01743809,0.04718599,0.01459778,-0.00163789,0.00000346,-0.00099778,0.00001720,0.00004804,0.00001541,-0.00000099,,,,,,,,,,,,,,,,,,,,,,,
S,-0.5,1730147697511803648,,0.00410892,-0.99885714,0.01689190,0.04670112,0.01034161,-0.00260280,0.00000386,-0.00099878,0.00001645,0.00004697,0.00001032,-0.00000274,,,,,,,,,,,,,,,,,,,,,,,
S,-0.5,1730147697511751680,,,,,,,,,,,,,,0.20857184,0.21424727,-0.68488055,-0.66448063,-56.19685364,0.01181601,0.01254300,0.00401913,0.00370579,0.04630110,0.01362930,-0.00310549,0.03388236,-9.78792191,0.18974246,0.04334236,-0.01214218,-0.10294433,0.00946000,9.77577972,-0.29268679,0.36992264,0.00000000
S,-0.5,1730147697512803840,,0.00480119,-0.99947530,0.01439460,0.04644222,0.01034746,-0.00925028,0.00000487,-0.00099960,0.00001467,0.00004633,0.00000899,-0.00000835,,,,,,,,,,,,,,,,,,,,,,,
S,-0.5,1730147697513803008,,0.00526484,-1.00126350,0.01611574,0.04605905,0.00760176,-0.01314814,0.00000540,-0.00100114,0.00001501,0.00004605,0.00000810,-0.00001456,,,,,,,,,,,,,,,,,,,,,,,
S,-0.5,1730147697513751040,,,,,,,,,,,,,,0.20856607,0.21426740,-0.68490887,-0.66444677,-56.19685364,0.01181601,0.01254300,0.00401913,0.00370579,0.04858953,0.00792758,-0.00586647,0.03788355,-9.79464722,0.16133651,0.04726194,-0.01889515,-0.13227740,0.00937839,9.77575207,-0.29361391,0.36992264,0.00000000
S,-0.5,1730147697514801408,,0.00498779,-1.00086784,0.01797292,0.04580656,0.00824204,-0.01115339,0.00000519,-0.00100151,0.00001818,0.00004573,0.00000725,-0.00001276,,,,,,,,,,,,,,,,,,,,,,,
S,-0.5,1730147697515798784,,0.00500821,-0.99936622,0.01820081,0.04750407,0.00603462,-0.00753443,0.00000492,-0.00099951,0.00001875,0.00004712,0.00000664,-0.00000756,,,,,,,,,,,,,,,,,,,,,,,
S,-0.5,1730147697515748608,,,,,,,,,,,,,,0.20855260,0.21429004,-0.68493688,-0.66441482,-56.19685364,0.01181601,0.01254300,0.00401913,0.00370579,0.04766395,0.00570766,-0.01768079,0.05297034,-9.81778431,0.14717901,0.06212226,-0.04206085,-0.14737523,0.00915192,9.77572346,-0.29455423,0.36992264,0.00000000
S,-0.5,1730147697516795392,,0.00410082,-1.00064850,0.01788875,0.04854706,0.00138572,-0.01070790,0.00000427,-0.00099994,0.00001802,0.00004890,0.00000153,-0.00000898,,,,,,,,,,,,,,,,,,,,,,,
S,-0.5,1730147697517791232,,0.00448291,-0.99978131,0.02087067,0.04637254,0.00119397,-0.00997442,0.00000412,-0.00100035,0.00002023,0.00004710,-0.00000025,-0.00001112,,,,,,,,,,,,,,,,,,,,,,,
S,-0.5,1730147697517744640,,,,,,,,,,,,,,0.20853625,0.21431310,-0.68496484,-0.66438371,-56.19685364,0.01181601,0.01254300,0.00401913,0.00370579,0.04873298,0.00424461,-0.01068190,0.04820834,-9.80187416,0.18388143,0.05708598,-0.02617931,-0.11161485,0.00887764,9.77569485,-0.29549628,0.36992264,0.00000000
S,-0.5,1730147697518786304,,0.00534880,-0.99916428,0.02112301,0.04750156,-0.00044160,-0.01035027,0.00000531,-0.00099900,0.00002203,0.00004660,-0.00000021,-0.00001005,,,,,,,,,,,,,,,,,,,,,,,
S,-0.5,1730147697519783936,,0.00608926,-1.00040483,0.01938109,0.05137176,0.00095078,-0.01123070,0.00000623,-0.00099998,0.00001978,0.00005103,0.00000018,-0.00001119,,,,,,,,,,,,,,,,,,,,,,,
S,-0.5,1730147697519742208,,,,,,,,,,,,,,0.20851807,0.21433233,-0.68499440,-0.66435277,-56.19685364,0.01181601,0.01254300,0.00401913,0.00370579,0.04871732,-0.00264582,-0.01424273,0.04045080,-9.81005287,0.19838266,0.04908535,-0.03438568,-0.09806596,0.00863456,9.77566719,-0.29644862,0.36992264,0.00000000
S,-0.5,1730147697520780800,,0.00744606,-0.99907017,0.01962788,0.04736634,-0.00044944,-0.01213953,0.00000744,-0.00099971,0.00001903,0.00004933,0.00000025,-0.00001225,,,,,,,,,,,,,,,,,,,,,,,
S,-0.5,1730147697521777152,,0.00712992,-0.99734294,0.02126697,0.04777893,0.00155745,-0.01044942,0.00000762,-0.00099723,0.00002105,0.00004643,0.00000075,-0.00001105,,,,,,,,,,,,,,,,,,,,,,,
S,-0.5,1730147697521738752,,,,,,,,,,,,,,0.20849606,0.21435106,-0.68502551,-0.66432154,-56.19685364,0.01181601,0.01254300,0.00401913,0.00370579,0.05264565,-0.00221767,-0.01431525,0.06109973,-9.80648327,0.19395852,0.06945390,-0.03084564,-0.10348132,0.00835416,9.77563763,-0.29743984,0.36992264,0.00000000
S,-0.5,1730147697522772736,,0.00982817,-0.99641991,0.02154901,0.04687635,0.00366572,-0.01255823,0.00000924,-0.00099604,0.00002202,0.00004717,0.00000392,-0.00001164,,,,,,,,,,,,,,,,,,,,,,,
S,-0.5,1730147697523767552,,0.01266938,-0.99746656,0.02353322,0.04660841,0.00274968,-0.01044916,0.00001301,-0.00099698,0.00002326,0.00004637,0.00000359,-0.00001150,,,,,,,,,,,,,,,,,,,,,,,
S,-0.5,1730147697523733504,,,,,,,,,,,,,,0.20847449,0.21437003,-0.68505633,-0.66429043,-56.19685364,0.01181601,0.01254300,0.00401913,0.00370579,0.04804669,-0.00164775,-0.01417067,0.07471833,-9.77950478,0.20640530,0.08279298,-0.00389671,-0.09201913,0.00807464,9.77560806,-0.29842442,0.36992264,0.00000000
S,-0.5,1730147697524761600,,0.01222675,-0.99922818,0.02246246,0.04620074,0.00668191,-0.01360774,0.00001321,-0.00099924,0.00002329,0.00004619,0.00000568,-0.00001236,,,,,,,,,,,,,,,,,,,,,,,
S,-0.5,1730147697525765376,,0.00994057,-0.99778467,0.02213154,0.04878113,0.00560116,-0.01371011,0.00001022,-0.00099861,0.00002185,0.00004818,0.00000705,-0.00001470,,,,,,,,,,,,,,,,,,,,,,,
S,-0.5,1730147697525737216,,,,,,,,,,,,,,0.20845447,0.21438976,-0.68508518,-0.66426057,-56.19685364,0.01181601,0.01254300,0.00401913,0.00370579,0.04798749,0.00119234,-0.01462850,0.12760445,-9.77706051,0.22812632,0.13539754,-0.00148106,-0.07123733,0.00779308,9.77557945,-0.29936364,0.36992264,0.00000000
S,-0.5,1730147697526768384,,0.01051221,-0.99728709,0.02371329,0.04851392,0.00554802,-0.00909822,0.00000968,-0.00099692,0.00002332,0.00004938,0.00000521,-0.00000997,,,,,,,,,,,,,,,,,,,,,,,
S,-0.5,1730147697527770624,,0.00918601,-0.99689353,0.02537327,0.04796526,0.00523961,-0.01170746,0.00000961,-0.00099681,0.00002558,0.00004798,0.00000528,-0.00000977,,,,,,,,,,,,,,,,,,,,,,,
S,-0.5,1730147697527739904,,,,,,,,,,,,,,0.20843522,0.21441300,-0.68511355,-0.66422981,-56.19685364,0.01181601,0.01254300,0.00401913,0.00370579,0.04980022,0.00465435,-0.01782180,0.10017730,-9.79299641,0.21428509,0.10765500,-0.01744652,-0.08603476,0.00747770,9.77554989,-0.30031985,0.36992264,0.00000000
S,-0.5,1730147697528772352,,0.00914701,-0.99260384,0.02608683,0.04845960,0.00378609,-0.01174996,0.00000873,-0.00099326,0.00002649,0.00004820,0.00000395,-0.00001257,,,,,,,,,,,,,,,,,,,,,,,
S,-0.5,1730147697529773056,,0.00739630,-0.99430716,0.02751639,0.04902017,-0.00257804,-0.00705701,0.00000770,-0.00099263,0.00002748,0.00004908,-0.00000188,-0.00000792,,,,,,,,,,,,,,,,,,,,,,,
S,-0.5,1730147697529740800,,,,,,,,,,,,,,0.20841697,0.21443640,-0.68514252,-0.66419822,-56.19685364,0.01181601,0.01254300,0.00401913,0.00370579,0.04959759,0.00288388,-0.01289026,0.09423118,-9.77533436,0.25080544,0.10141071,0.00018692,-0.05048412,0.00717953,9.77552128,-0.30128956,0.36992264,0.00000000
S,-0.5,1730147697530773248,,0.00609941,-0.99812740,0.02733579,0.04491782,0.00371070,-0.00845486,0.00000578,-0.00099798,0.00002782,0.00004584,0.00000054,-0.00000671,,,,,,,,,,,,,,,,,,,,,,,
S,-0.5,1730147697531772672,,0.00903729,-0.99784678,0.02883894,0.05151454,0.00817633,-0.00550221,0.00000809,-0.00099911,0.00002851,0.00004901,0.00000937,-0.00000648,,,,,,,,,,,,,,,,,,,,,,,
S,-0.5,1730147697531740416,,,,,,,,,,,,,,0.20839779,0.21445459,-0.68517339,-0.66416651,-56.11229706,0.01181601,0.01254300,0.00401913,0.00370579,0.05069336,-0.00427928,-0.01104811,0.07552691,-9.73439598,0.26952451,0.08247209,0.04109573,-0.03274530,0.00694519,9.77549171,-0.30226982,0.45447922,0.00000000
S,-0.5,1730147697532771584,,0.01237544,-0.99779457,0.03137625,0.05158523,0.01366044,-0.00555878,0.00001270,-0.00099771,0.00003139,0.00005367,0.00001409,-0.00000461,,,,,,,,,,,,,,,,,,,,,,,
S,-0.5,1730147697533769472,,0.01045750,-1.00015020,0.03088403,0.04754213,0.01446579,-0.00541424,0.00001187,-0.00099971,0.00003178,0.00004830,0.00001607,-0.00000546,,,,,,,,,,,,,,,,,,,,,,,
S,-0.5,1730147697533738752,,,,,,,,,,,,,,0.20838095,0.21447308,-0.68520451,-0.66413361,-56.11229706,0.01181601,0.01254300,0.00401913,0.00370579,0.05062786,0.00697188,-0.00960848,0.07934217,-9.79796028,0.27957401,0.08608624,-0.02250099,-0.02368796,0.00674407,9.77545929,-0.30326197,0.45447922,0.00000000
S,-0.5,1730147697534766848,,0.01037169,-0.99780941,0.03115395,0.04933332,0.01907822,-0.00094738,0.00000978,-0.00099898,0.00003095,0.00004772,0.00001850,-0.00000171,,,,,,,,,,,,,,,,,,,,,,,
S,-0.5,1730147697535763200,,0.00762395,-0.99971914,0.03250006,0.04909142,0.01915525,0.00249866,0.00000810,-0.00099863,0.00003234,0.00004971,0.00002061,0.00000329,,,,,,,,,,,,,,,,,,,,,,,
S,-0.5,1730147697535735552,,,,,,,,,,,,,,0.20837121,0.21449664,-0.68523377,-0.66409886,-56.11229706,0.01181601,0.01254300,0.00401913,0.00370579,0.04991692,0.01367027,-0.00858338,0.11639120,-9.80376339,0.31166190,0.12296360,-0.02833462,0.00741768,0.00657239,9.77542877,-0.30424422,0.45447922,0.00000000
S,-0.5,1730147697536758784,,0.00739046,-1.00062573,0.03341392,0.05246907,0.01712689,-0.00082299,0.00000656,-0.00100107,0.00003368,0.00005178,0.00001752,0.00000088,,,,,,,,,,,,,,,,,,,,,,,
S,-0.5,1730147697537756928,,0.00708158,-1.00260413,0.03656625,0.04813991,0.01744643,0.00173237,0.00000706,-0.00100253,0.00003628,0.00005000,0.00001674,0.00000021,,,,,,,,,,,,,,,,,,,,,,,
S,-0.5,1730147697537739776,,,,,,,,,,,,,,0.20836850,0.21452068,-0.68526322,-0.66406167,-56.11229706,0.01181601,0.01254300,0.00401913,0.00370579,0.05132323,0.01821456,0.00016951,0.07938930,-9.79318714,0.31716245,0.08588941,-0.01778793,0.01192987,0.00650011,9.77539921,-0.30523258,0.45447922,0.00000000
S,-0.5,1730147697538759936,,0.00733747,-1.00014639,0.03888264,0.04742975,0.01906935,-0.00020604,0.00000719,-0.00100122,0.00003946,0.00004618,0.00001888,0.00000096,,,,,,,,,,,,,,,,,,,,,,,
S,-0.5,1730147697539764224,,0.00836713,-0.99944985,0.03989699,0.05012702,0.02242727,0.00295684,0.00000826,-0.00099879,0.00004045,0.00004941,0.00002233,0.00000177,,,,,,,,,,,,,,,,,,,,,,,
S,-0.5,1730147697539744256,,,,,,,,,,,,,,0.20836771,0.21454315,-0.68529373,-0.66402316,-56.11229706,0.01181601,0.01254300,0.00401913,0.00370579,0.05161932,0.01434788,-0.00291412,0.06926867,-9.83149242,0.35582688,0.07575246,-0.05612373,0.04958761,0.00648379,9.77536869,-0.30623928,0.45447922,0.00000000
S,-0.5,1730147697540767744,,0.00645428,-0.99944794,0.04031591,0.04915116,0.02486853,0.00093305,0.00000713,-0.00099923,0.00004056,0.00005019,0.00002549,0.00000231,,,,,,,,,,,,,,,,,,,,,,,
S,-0.5,1730147697541770496,,0.00615884,-1.00059140,0.04046746,0.04588569,0.02774291,0.00708999,0.00000560,-0.00100038,0.00004057,0.00004617,0.00002800,0.00000533,,,,,,,,,,,,,,,,,,,,,,,
S,-0.5,1730147697541747200,,,,,,,,,,,,,,0.20836702,0.21456669,-0.68532377,-0.66398478,-56.11229706,0.01181601,0.01254300,0.00401913,0.00370579,0.05102860,0.01993890,-0.00135972,0.08101691,-9.79482460,0.39668196,0.08746892,-0.01948738,0.08943999,0.00645202,9.77533722,-0.30724198,0.45447922,0.00000000
S,-0.5,1730147697542772736,,0.00431278,-1.00034714,0.04097514,0.04518707,0.02589351,0.00678284,0.00000455,-0.00100076,0.00004093,0.00004427,0.00002714,0.00000880,,,,,,,,,,,,,,,,,,,,,,,
S,-0.5,1730147697543773952,,0.00335397,-0.99766344,0.04126487,0.04414700,0.02198415,0.00820214,0.00000294,-0.00099807,0.00004137,0.00004411,0.00002211,0.00000785,,,,,,,,,,,,,,,,,,,,,,,
S,-0.5,1730147697543748608,,,,,,,,,,,,,,0.20837231,0.21459182,-0.68535191,-0.66394591,-56.11229706,0.01181601,0.01254300,0.00401913,0.00370579,0.04778608,0.02560288,0.00220227,0.05495040,-9.81040764,0.39788458,0.06142486,-0.03510189,0.08967629,0.00647446,9.77530575,-0.30820829,0.45447922,0.00000000
S,-0.5,1730147697544774400,,0.00331222,-0.99869317,0.04108693,0.04122299,0.02509048,0.00543277,0.00000301,-0.00099765,0.00004121,0.00004142,0.00002328,0.00000639,,,,,,,,,,,,,,,,,,,,,,,
S,-0.5,1730147697545774080,,0.00445559,-0.99900544,0.04025431,0.04603860,0.02248362,0.00702080,0.00000423,-0.00099928,0.00004035,0.00004423,0.00002395,0.00000585,,,,,,,,,,,,,,,,,,,,,,,
S,-0.5,1730147697545748224,,,,,,,,,,,,,,0.20838010,0.21461423,-0.68537897,-0.66390830,-56.11229706,0.01181601,0.01254300,0.00401913,0.00370579,0.04573129,0.01971091,0.00472160,0.02883793,-9.78775597,0.40573862,0.03539401,-0.01247883,0.09661701,0.00655607,9.77527714,-0.30912161,0.45447922,0.00000000
S,-0.5,1730147697546772736,,0.00565593,-1.00199687,0.03797854,0.04567205,0.02492585,0.00887809,0.00000580,-0.00100155,0.00003813,0.00004727,0.00002365,0.00000905,,,,,,,,,,,,,,,,,,,,,,,
S,-0.5,1730147697547770624,,0.00504312,-1.00093269,0.03994636,0.04214558,0.02503726,0.01139937,0.00000554,-0.00100208,0.00003886,0.00004267,0.00002579,0.00001153,,,,,,,,,,,,,,,,,,,,,,,
S,-0.5,1730147697547748608,,,,,,,,,,,,,,0.20838688,0.21463491,-0.68540585,-0.66387171,-56.11229706,0.01181601,0.01254300,0.00401913,0.00370579,0.04585061,0.02155119,0.00272586,0.04152722,-9.79955482,0.39569029,0.04816869,-0.02430630,0.08567342,0.00664147,9.77524853,-0.31001687,0.45447922,0.00000000
S,-0.5,1730147697548770048,,0.00345750,-1.00041592,0.04217926,0.03951525,0.02845514,0.01345297,0.00000355,-0.00100017,0.00004240,0.00003887,0.00002787,0.00001388,,,,,,,,,,,,,,,,,,,,,,,
S,-0.5,1730147697549768704,,0.00455745,-1.00288272,0.04203751,0.03829858,0.02702606,0.01269485,0.00000385,-0.00100227,0.00004277,0.00003768,0.00002837,0.00001349,,,,,,,,,,,,,,,,,,,,,,,
S,-0.5,1730147697549753088,,,,,,,,,,,,,,0.20839632,0.21465541,-0.68543226,-0.66383481,-56.11229706,0.01181601,0.01254300,0.00401913,0.00370579,0.04428733,0.02339954,0.00840760,0.05429284,-9.82703018,0.38112605,0.06105731,-0.05181026,0.07022792,0.00676447,9.77521992,-0.31089813,0.45447922,0.00000000
S,-0.5,1730147697550771968,,0.00309130,-1.00178432,0.04206510,0.03798992,0.03019440,0.01200328,0.00000371,-0.00100277,0.00004201,0.00003766,0.00002916,0.00001189,,,,,,,,,,,,,,,,,,,,,,,
S,-0.5,1730147697551774464,,0.00365142,-1.00073791,0.04319306,0.03369988,0.02329548,0.01603836,0.00000308,-0.00100058,0.00004300,0.00003438,0.00002556,0.00001509,,,,,,,,,,,,,,,,,,,,,,,
S,-0.5,1730147697551757312,,,,,,,,,,,,,,0.20841050,0.21467409,-0.68545687,-0.66379893,-56.11229706,0.01181601,0.01254300,0.00401913,0.00370579,0.03930008,0.02597880,0.01036139,0.03778423,-9.82891083,0.41946873,0.04474720,-0.05371761,0.10775444,0.00696297,9.77519321,-0.31171429,0.45447922,0.00000000
S,-0.5,1730147697552777728,,0.00297483,-0.99669486,0.04288617,0.03351609,0.02215885,0.01385858,0.00000328,-0.00099710,0.00004330,0.00003218,0.00002017,0.00001554,,,,,,,,,,,,,,,,,,,,,,,
S,-0.5,1730147697553780224,,0.00558565,-0.99744588,0.04477425,0.03337329,0.01999979,0.01284256,0.00000490,-0.00099602,0.00004433,0.00003334,0.00002003,0.00001233,,,,,,,,,,,,,,,,,,,,,,,
S,-0.5,1730147697553759744,,,,,,,,,,,,,,0.20842667,0.21469060,-0.68547916,-0.66376555,-56.11229706,0.01181601,0.01254300,0.00401913,0.00370579,0.03599879,0.02316259,0.01196020,0.03023102,-9.81232166,0.42165300,0.03742775,-0.03715134,0.10920376,0.00719673,9.77517033,-0.31244925,0.45447922,0.00000000
S,-0.5,1730147697554781952,,0.00632470,-0.99788505,0.04476001,0.03173215,0.01815671,0.01391501,0.00000702,-0.00099804,0.00004536,0.00003198,0.00001780,0.00001340,,,,,,,,,,,,,,,,,,,,,,,
S,-0.5,1730147697555782656,,0.00510320,-0.99769992,0.04329648,0.03067577,0.01567388,0.01489656,0.00000556,-0.00099787,0.00004356,0.00003035,0.00001554,0.00001506,,,,,,,,,,,,,,,,,,,,,,,
S,-0.5,1730147697555760896,,,,,,,,,,,,,,0.20844007,0.21470428,-0.68550074,-0.66373461,-56.11229706,0.01181601,0.01254300,0.00401913,0.00370579,0.03495842,0.01763543,0.00920843,0.04801527,-9.76764393,0.43476418,0.05543176,0.00750446,0.12162092,0.00741650,9.77514839,-0.31314325,0.45447922,0.00000000
S,-0.5,1730147697556782848,,0.00524573,-0.99822670,0.04106488,0.02581494,0.01800520,0.01701131,0.00000483,-0.00099807,0.00004100,0.00002636,0.00001679,0.00001694,,,,,,,,,,,,,,,,,,,,,,,
S,-0.5,1730147697557782272,,0.00395047,-0.99893767,0.04098506,0.02346770,0.01775051,0.01391702,0.00000423,-0.00099898,0.00004029,0.00002235,0.00001854,0.00001515,,,,,,,,,,,,,,,,,,,,,,,
S,-0.5,1730147697557760512,,,,,,,,,,,,,,0.20845045,0.21471421,-0.68552202,-0.66370618,-56.11229706,0.01181601,0.01254300,0.00401913,0.00370579,0.03196301,0.01314346,0.01193470,0.05452735,-9.78579426,0.42715538,0.06216012,-0.01066685,0.11335856,0.00763277,9.77512741,-0.31379682,0.45447922,0.00000000
S,-0.5,1730147697558780928,,0.00269066,-0.99821550,0.03971648,0.02299214,0.01315056,0.01204550,0.00000251,-0.00099857,0.00003992,0.00002233,0.00001391,0.00001140,,,,,,,,,,,,,,,,,,,,,,,
S,-0.5,1730147697559778560,,0.00192275,-0.99837387,0.03817236,0.02175524,0.00777684,0.01138974,0.00000166,-0.00099812,0.00003805,0.00002183,0.00000729,0.00001091,,,,,,,,,,,,,,,,,,,,,,,
S,-0.5,1730147697559758080,,,,,,,,,,,,,,0.20846243,0.21472155,-0.68554008,-0.66368139,-56.11229706,0.01181601,0.01254300,0.00401913,0.00370579,0.02396461,0.01614401,0.01202749,0.04149508,-9.79660988,0.39509904,0.04937123,-0.02150059,0.08075616,0.00787615,9.77510929,-0.31434289,0.45447922,0.00000000
S,-0.5,1730147697560775424,,-0.00024701,-0.99848133,0.03801791,0.02324481,0.00823611,0.01317637,-0.00000010,-0.00099851,0.00003755,0.00002258,0.00000644,0.00001264,,,,,,,,,,,,,,,,,,,,,,,
S,-0.5,1730147697561773056,,0.00116571,-0.99641651,0.03666778,0.02089478,0.00056128,0.01164929,0.00000022,-0.00099683,0.00003686,0.00002180,0.00000210,0.00001250,,,,,,,,,,,,,,,,,,,,,,,
S,-0.5,1730147697561756160,,,,,,,,,,,,,,0.20847113,0.21472667,-0.68555576,-0.66366082,-56.11229706,0.01178755,0.01256583,0.00402597,0.00370831,0.02344630,0.00489413,0.00778826,0.01629200,-9.78816700,0.37313387,0.02436868,-0.01307201,0.05832806,0.00807668,9.77509499,-0.31480581,0.45447922,0.00000000
S,-0.5,1730147697562776064,,0.00077170,-0.99870515,0.03651134,0.01747517,0.00138824,0.01303048,0.00000129,-0.00099763,0.00003611,0.00001735,-0.00000120,0.00001229,,,,,,,,,,,,,,,,,,,,,,,
S,-0.5,1730147697563778048,,0.00036557,-0.99891269,0.03620682,0.01484661,-0.00106024,0.01372543,0.00000031,-0.00099960,0.00003621,0.00001424,-0.00000035,0.00001404,,,,,,,,,,,,,,,,,,,,,,,
S,-0.5,1730147697563758592,,,,,,,,,,,,,,0.20847337,0.21472721,-0.68557268,-0.66364247,-56.11229706,0.01178755,0.01256583,0.00402597,0.00370831,0.02341360,-0.00029294,0.00937055,0.00214178,-9.77552319,0.36151096,0.01038752,-0.00044250,0.04624674,0.00824573,9.77508068,-0.31526423,0.45447922,0.00000000
S,-0.5,1730147697564779520,,0.00096953,-0.99886507,0.03665628,0.01366527,-0.00696504,0.01422390,0.00000073,-0.00099894,0.00003648,0.00001304,-0.00000667,0.00001435,,,,,,,,,,,,,,,,,,,,,,,
S,-0.5,1730147697565780224,,0.00174655,-0.99854976,0.03747753,0.01076472,-0.01167973,0.01180419,0.00000180,-0.00099859,0.00003747,0.00001092,-0.00001270,0.00001240,,,,,,,,,,,,,,,,,,,,,,,
S,-0.5,1730147697565759488,,,,,,,,,,,,,,0.20847484,0.21472333,-0.68558818,-0.66362721,-56.11229706,0.01178755,0.01256583,0.00402597,0.00370831,0.01585340,-0.00274700,0.01091392,0.00307724,-9.80276203,0.35511929,0.01152030,-0.02769470,0.03947094,0.00844306,9.77506733,-0.31564835,0.45447922,0.00000000
S,-0.5,1730147697566780160,,0.00241156,-0.99861759,0.03744143,0.00929731,-0.01479251,0.01143075,0.00000254,-0.00099850,0.00003771,0.00000864,-0.00001573,0.00001073,,,,,,,,,,,,,,,,,,,,,,,
S,-0.5,1730147697567779328,,0.00095581,-1.00071537,0.03730981,0.00492730,-0.01496682,0.01325400,0.00000143,-0.00100036,0.00003732,0.00000525,-0.00001593,0.00001280,,,,,,,,,,,,,,,,,,,,,,,
S,-0.5,1730147697567758592,,,,,,,,,,,,,,0.20847239,0.21471345,-0.68560165,-0.66361731,-56.11229706,0.01178755,0.01256583,0.00402597,0.00370831,0.01253340,-0.01509752,0.00927760,0.01763039,-9.79284286,0.36746702,0.02626524,-0.01778412,0.05154178,0.00863485,9.77505875,-0.31592524,0.45447922,0.00000000
S,-0.5,1730147697568777472,,-0.00051733,-0.99838662,0.03711111,0.00084715,-0.01788764,0.01779029,-0.00000071,-0.00099948,0.00003710,0.00000020,-0.00001741,0.00001755,,,,,,,,,,,,,,,,,,,,,,,
S,-0.5,1730147697569776128,,-0.00000110,-0.99957132,0.03690983,-0.00041558,-0.01785463,0.01662269,-0.00000056,-0.00099861,0.00003688,-0.00000148,-0.00001879,0.00001828,,,,,,,,,,,,,,,,,,,,,,,
S,-0.5,1730147697569757696,,,,,,,,,,,,,,0.20846514,0.21469790,-0.68561363,-0.66361225,-56.11229706,0.01178755,0.01256583,0.00402597,0.00370831,0.00687189,-0.01832083,0.00967897,0.01404135,-9.81013966,0.36600327,0.02285108,-0.03508759,0.04988745,0.00880973,9.77505207,-0.31611583,0.45447922,0.00000000
S,-0.5,1730147697570774016,,-0.00238625,-1.00127864,0.03585223,-0.00023016,-0.02981268,0.01050209,-0.00000179,-0.00100135,0.00003598,-0.00000067,-0.00002763,0.00001124,,,,,,,,,,,,,,,,,,,,,,,
S,-0.5,1730147697571771136,,-0.00300780,-1.00235116,0.03433376,0.00285779,-0.02824063,0.01025543,-0.00000365,-0.00100270,0.00003427,0.00000236,-0.00003233,0.00000835,,,,,,,,,,,,,,,,,,,,,,,
S,-0.5,1730147697571754752,,,,,,,,,,,,,,0.20845909,0.21467701,-0.68562275,-0.66361147,-56.11229706,0.01178755,0.01256583,0.00402597,0.00370831,0.00013279,-0.02118521,0.01515389,-0.00552969,-9.79306602,0.36169881,0.00351060,-0.01801682,0.04551348,0.00904028,9.77504921,-0.31618533,0.45447922,0.00000000
S,-0.5,1730147697572767488,,-0.00232396,-1.00031269,0.03344609,-0.00015385,-0.02590628,0.00944038,-0.00000265,-0.00100102,0.00003312,0.00000138,-0.00002583,0.00000951,,,,,,,,,,,,,,,,,,,,,,,
S,-0.5,1730147697573767680,,-0.00335368,-1.00039935,0.03601401,-0.00292632,-0.02629944,0.01115952,-0.00000295,-0.00099973,0.00003526,-0.00000338,-0.00002548,0.00001059,,,,,,,,,,,,,,,,,,,,,,,
S,-0.5,1730147697573755392,,,,,,,,,,,,,,0.20844625,0.21465190,-0.68563211,-0.66361392,-55.83749771,0.01178755,0.01256583,0.00402597,0.00370831,0.00397347,-0.03472747,0.00522711,-0.03583185,-9.83312511,0.33610576,-0.02660998,-0.05807781,0.01987916,0.00922187,9.77504730,-0.31622660,0.72927856,0.00000000
S,-0.5,1730147697574767360,,-0.00354991,-1.00032926,0.03590980,-0.00503190,-0.02804890,0.01092869,-0.00000384,-0.00100037,0.00003675,-0.00000553,-0.00002786,0.00001152,,,,,,,,,,,,,,,,,,,,,,,
S,-0.5,1730147697575766016,,-0.00257752,-0.99908257,0.03293570,-0.00132157,-0.02654384,0.01157061,-0.00000282,-0.00099929,0.00003344,-0.00000267,-0.00002737,0.00001138,,,,,,,,,,,,,,,,,,,,,,,
S,-0.5,1730147697575759360,,,,,,,,,,,,,,0.20842876,0.21462700,-0.68564075,-0.66361856,-55.83749771,0.01178755,0.01256583,0.00402597,0.00370831,-0.00176353,-0.02787982,0.00746283,-0.02891991,-9.80404854,0.34582654,-0.01959369,-0.02900124,0.02957797,0.00932622,9.77504730,-0.31624857,0.72927856,0.00000000
S,-0.5,1730147697576769280,,-0.00223249,-1.00013888,0.03194579,-0.00353323,-0.02567308,0.01158438,-0.00000199,-0.00099955,0.00003118,-0.00000195,-0.00002535,0.00001179,,,,,,,,,,,,,,,,,,,,,,,
S,-0.5,1730147697577771520,,-0.00065303,-1.00020146,0.03422488,-0.00475280,-0.02752033,0.01011535,-0.00000083,-0.00100053,0.00003350,-0.00000524,-0.00002691,0.00001039,,,,,,,,,,,,,,,,,,,,,,,
S,-0.5,1730147697577761536,,,,,,,,,,,,,,0.20841451,0.21460219,-0.68564749,-0.66362405,-55.83749771,0.01178755,0.01256583,0.00402597,0.00370831,-0.00104823,-0.02976902,0.00825562,-0.02762176,-9.79965496,0.32796511,-0.01816001,-0.02460766,0.01174277,0.00946175,9.77504730,-0.31622234,0.72927856,0.00000000
S,-0.5,1730147697578772992,,-0.00287039,-1.00124812,0.03223372,-0.00232146,-0.02518327,0.01003740,-0.00000196,-0.00100108,0.00003332,-0.00000315,-0.00002620,0.00000958,,,,,,,,,,,,,,,,,,,,,,,
S,-0.5,1730147697579773440,,-0.00038140,-1.00117052,0.02889627,-0.00432486,-0.02609748,0.00805016,-0.00000154,-0.00100152,0.00002887,-0.00000319,-0.00002519,0.00000839,,,,,,,,,,,,,,,,,,,,,,,
S,-0.5,1730147697579762432,,,,,,,,,,,,,,0.20839991,0.21457678,-0.68565375,-0.66363037,-55.83749771,0.01178755,0.01256583,0.00402597,0.00370831,-0.00361751,-0.02930239,0.00726175,-0.00814012,-9.81181145,0.32847792,0.00145425,-0.03676319,0.01230055,0.00959437,9.77504826,-0.31617737,0.72927856,0.00000000
S,-0.5,1730147697580773120,,0.00187193,-1.00039315,0.02756283,-0.00379997,-0.02655819,0.01004704,0.00000225,-0.00100051,0.00002674,-0.00000453,-0.00002677,0.00000905,,,,,,,,,,,,,,,,,,,,,,,
S,-0.5,1730147697581771776,,0.00194514,-0.99836129,0.02641198,0.00201121,-0.02791805,0.00542629,0.00000265,-0.00099848,0.00002620,0.00000112,-0.00002782,0.00000690,,,,,,,,,,,,,,,,,,,,,,,
S,-0.5,1730147697581761536,,,,,,,,,,,,,,0.20838511,0.21455307,-0.68565929,-0.66363692,-55.83749771,0.01178755,0.01256583,0.00402597,0.00370831,-0.00156925,-0.02758232,0.00526152,-0.01509559,-9.82153416,0.28310665,-0.00539658,-0.04648399,-0.03302112,0.00969901,9.77505016,-0.31612778,0.72927856,0.00000000
S,-0.5,1730147697582769920,,0.00082044,-0.99611098,0.02448349,0.00383001,-0.02888213,0.00485145,0.00000105,-0.00099587,0.00002447,0.00000535,-0.00002914,0.00000349,,,,,,,,,,,,,,,,,,,,,,,
S,-0.5,1730147697583767040,,-0.00152209,-0.99659628,0.02254552,0.00357897,-0.02753794,0.00675511,-0.00000145,-0.00099579,0.00002228,0.00000420,-0.00002809,0.00000623,,,,,,,,,,,,,,,,,,,,,,,
S,-0.5,1730147697583758592,,,,,,,,,,,,,,0.20836817,0.21453092,-0.68566668,-0.66364175,-55.83749771,0.01178755,0.01256583,0.00402597,0.00370831,0.00274015,-0.03021247,0.00377659,0.02598054,-9.79177380,0.25690585,0.03574980,-0.01672459,-0.05923474,0.00976925,9.77504921,-0.31614059,0.72927856,0.00000000
S,-0.5,1730147697584763392,,-0.00313711,-0.99331659,0.02059240,-0.00062565,-0.02495847,0.00873437,-0.00000359,-0.00099407,0.00002033,0.00000006,-0.00002500,0.00000898,,,,,,,,,,,,,,,,,,,,,,,
S,-0.5,1730147697585761280,,-0.00157522,-0.99380380,0.02022386,-0.00281903,-0.02235926,0.00893945,-0.00000237,-0.00099267,0.00001967,-0.00000376,-0.00002201,0.00000953,,,,,,,,,,,,,,,,,,,,,,,
S,-0.5,1730147697585756928,,,,,,,,,,,,,,0.20834872,0.21450931,-0.68567657,-0.66364461,-55.83749771,0.01178755,0.01256583,0.00402597,0.00370831,0.00582121,-0.03048389,0.00310137,-0.01426575,-9.76538277,0.21852814,-0.00444870,0.00966263,-0.09769668,0.00981706,9.77504539,-0.31622481,0.72927856,0.00000000
S,-0.5,1730147697586758912,,0.00057074,-0.99380034,0.01851245,-0.00351944,-0.01865407,0.00919241,0.00000068,-0.00099396,0.00001871,-0.00000409,-0.00001850,0.00000921,,,,,,,,,,,,,,,,,,,,,,,
S,-0.5,1730147697587755776,,-0.00069046,-0.99520051,0.02074093,-0.00367441,-0.01929778,0.00814255,0.00000022,-0.00099495,0.00001979,-0.00000387,-0.00001800,0.00000841,,,,,,,,,,,,,,,,,,,,,,,
S,-0.5,1730147697587759360,,,,,,,,,,,,,,0.20833266,0.21448822,-0.68568456,-0.66364825,-55.83749771,0.01178755,0.01256583,0.00402597,0.00370831,-0.00214119,-0.02440530,0.00640731,-0.02327245,-9.73478031,0.19288513,-0.01337961,0.04026508,-0.12337619,0.00989284,9.77504539,-0.31626132,0.72927856,0.00000000
S,-0.5,1730147697588757248,,0.00213358,-0.99450809,0.02047626,0.00019310,-0.01788109,0.00968658,0.00000122,-0.00099508,0.00002123,-0.00000056,-0.00001834,0.00000907,,,,,,,,,,,,,,,,,,,,,,,
S,-0.5,1730147697589757696,,0.00100810,-0.99159551,0.01983722,0.00225388,-0.02006063,0.01093033,0.00000211,-0.00099190,0.00001987,0.00000311,-0.00001921,0.00001120,,,,,,,,,,,,,,,,,,,,,,,
S,-0.5,1730147697589760256,,,,,,,,,,,,,,0.20832165,0.21446890,-0.68568903,-0.66365331,-55.83749771,0.01178755,0.01256583,0.00402597,0.00370831,-0.00225151,-0.02039628,0.00528893,0.00217543,-9.75707817,0.19408636,0.01216824,0.01796818,-0.12213318,0.00999281,9.77504635,-0.31621954,0.72927856,0.00000000
S,-0.5,1730147697590758656,,-0.00097163,-0.98993391,0.01758130,0.00364539,-0.01715505,0.01330041,-0.00000097,-0.00098931,0.00001779,0.00000405,-0.00001838,0.00001327,,,,,,,,,,,,,,,,,,,,,,,
S,-0.5,1730147697591758848,,-0.00090517,-0.98901922,0.01937428,0.00396303,-0.01492587,0.01341050,-0.00000155,-0.00098866,0.00001833,0.00000435,-0.00001441,0.00001414,,,,,,,,,,,,,,,,,,,,,,,
S,-0.5,1730147697591760640,,,,,,,,,,,,,,0.20831141,0.21445064,-0.68569565,-0.66365558,-55.83749771,0.01178755,0.01256583,0.00402597,0.00370831,0.00472821,-0.02160854,0.00807095,0.02070510,-9.72725773,0.19485213,0.03081509,0.04778767,-0.12139203,0.01010998,9.77504539,-0.31624416,0.72927856,0.00000000
S,-0.5,1730147697592758272,,0.00033508,-0.99046093,0.02039854,0.00421069,-0.01032077,0.01159097,0.00000013,-0.00098991,0.00002078,0.00000427,-0.00001045,0.00001196,,,,,,,,,,,,,,,,,,,,,,,
S,-0.5,1730147697593756672,,0.00022299,-0.99188578,0.02137449,0.00620923,-0.01248388,0.01298516,0.00000064,-0.00099209,0.00002152,0.00000592,-0.00001063,0.00001215,,,,,,,,,,,,,,,,,,,,,,,
S,-0.5,1730147697593759488,,,,,,,,,,,,,,0.20830344,0.21443248,-0.68570530,-0.66365409,-55.83749771,0.01178755,0.01256583,0.00402597,0.00370831,0.00596594,-0.01680087,0.01102003,-0.01517573,-9.69540882,0.17976032,-0.00489144,0.07963371,-0.13658749,0.01028429,9.77504253,-0.31634781,0.72927856,0.00000000
S,-0.5,1730147697594754304,,0.00130958,-0.99024636,0.02012672,0.00608468,-0.01256281,0.01084115,0.00000108,-0.00099100,0.00002066,0.00000674,-0.00001324,0.00001167,,,,,,,,,,,,,,,,,,,,,,,
S,-0.5,1730147697595751168,,0.00012102,-0.99163175,0.01999850,0.00738312,-0.00650358,0.01654756,0.00000068,-0.00099086,0.00001962,0.00000711,-0.00000763,0.00001483,,,,,,,,,,,,,,,,,,,,,,,
S,-0.5,1730147697595756800,,,,,,,,,,,,,,0.20829841,0.21441711,-0.68571502,-0.66365057,-55.83749771,0.01178755,0.01256583,0.00402597,0.00370831,0.00754264,-0.01301987,0.00902779,0.00625788,-9.72903824,0.21107186,0.01672870,0.04600048,-0.10540818,0.01047083,9.77503872,-0.31648004,0.72927856,0.00000000
S,-0.5,1730147697596747264,,-0.00053457,-0.99359447,0.02101917,0.00759123,0.00001875,0.01739649,-0.00000079,-0.00099368,0.00002079,0.00000797,0.00000076,0.00001906,,,,,,,,,,,,,,,,,,,,,,,
S,-0.5,1730147697597745152,,-0.00031917,-0.99286050,0.02109390,0.01122155,-0.00009246,0.01616223,-0.00000057,-0.00099362,0.00002141,0.00001063,0.00000200,0.00001666,,,,,,,,,,,,,,,,,,,,,,,
S,-0.5,1730147697597754880,,,,,,,,,,,,,,0.20829564,0.21440406,-0.68572503,-0.66364533,-55.83749771,0.01178755,0.01256583,0.00402597,0.00370831,0.00872525,-0.01002446,0.01170342,0.00669375,-9.71700001,0.19245203,0.01735957,0.05803299,-0.12418677,0.01066582,9.77503300,-0.31663880,0.72927856,0.00000000
S,-0.5,1730147697598742272,,-0.00194115,-0.99463099,0.02358361,0.00867590,0.00437649,0.01717353,-0.00000158,-0.00099408,0.00002316,0.00001029,0.00000353,0.00001660,,,,,,,,,,,,,,,,,,,,,,,
S,-0.5,1730147697599738624,,-0.00175272,-0.99699134,0.02268125,0.01126296,0.00403998,0.01779692,-0.00000230,-0.00099713,0.00002364,0.00000998,0.00000552,0.00001801,,,,,,,,,,,,,,,,,,,,,,,
S,-0.5,1730147697599751168,,,,,,,,,,,,,,0.20829819,0.21439414,-0.68573576,-0.66363662,-55.83749771,0.01178755,0.01256583,0.00402597,0.00370831,0.01224589,-0.00039098,0.01353182,-0.00555829,-9.74407005,0.20991556,0.00535091,0.03095627,-0.10692839,0.01090920,9.77502632,-0.31684396,0.72927856,0.00000000
S,-0.5,1730147697600739328,,-0.00330733,-1.00111234,0.02438312,0.00965998,0.00940939,0.01781899,-0.00000296,-0.00100111,0.00002379,0.00001077,0.00000833,0.00001801,,,,,,,,,,,,,,,,,,,,,,,
S,-0.5,1730147697601739520,,-0.00406139,-1.00229478,0.02319682,0.01196653,0.00978475,0.02074908,-0.00000442,-0.00100339,0.00002395,0.00001104,0.00001143,0.00002022,,,,,,,,,,,,,,,,,,,,,,,
S,-0.5,1730147697601751552,,,,,,,,,,,,,,0.20830600,0.21438779,-0.68574643,-0.66362518,-55.83749771,0.01178755,0.01256583,0.00402597,0.00370831,0.01160030,0.00312878,0.01488068,-0.02258828,-9.77846622,0.23180641,-0.01140043,-0.00344849,-0.08527102,0.01118785,9.77501774,-0.31707743,0.72927856,0.00000000
S,-0.5,1730147697602739200,,-0.00138818,-1.00349069,0.02542651,0.01561582,0.01551741,0.01904874,-0.00000211,-0.00100365,0.00002464,0.00001569,0.00001460,0.00002029,,,,,,,,,,,,,,,,,,,,,,,
S,-0.5,1730147697603737856,,-0.00113513,-1.00425506,0.02557504,0.01427160,0.02342514,0.01498778,-0.00000033,-0.00100450,0.00002626,0.00001568,0.00002381,0.00001518,,,,,,,,,,,,,,,,,,,,,,,
S,-0.5,1730147697603750144,,,,,,,,,,,,,,0.20838620,0.21445607,-0.68571317,-0.66361231,-55.83749771,0.01177917,0.01255193,0.00402012,0.00370575,0.01265435,0.00903104,0.01709871,-0.04333970,-9.83991051,0.23490947,-0.03204400,-0.06488228,-0.08184856,0.01129569,9.77502823,-0.31675804,0.72927856,0.00000000
S,-0.5,1730147697604735744,,0.00140135,-1.00328934,0.02839109,0.01320886,0.02212268,0.01559598,0.00000102,-0.00100371,0.00002793,0.00001297,0.00002488,0.00001419,,,,,,,,,,,,,,,,,,,,,,,
S,-0.5,1730147697605732864,,0.00238514,-1.00470006,0.02995213,0.01110987,0.02688465,0.01748609,0.00000301,-0.00100414,0.00003056,0.00001115,0.00002560,0.00001734,,,,,,,,,,,,,,,,,,,,,,,
S,-0.5,1730147697605747712,,,,,,,,,,,,,,0.20840310,0.21445930,-0.68572307,-0.66359574,-55.83749771,0.01177917,0.01255193,0.00402012,0.00370575,0.01729456,0.02141850,0.01205936,-0.00323410,-9.85074806,0.25750086,0.00835627,-0.07573032,-0.05954954,0.01159037,9.77501774,-0.31705040,0.72927856,0.00000000
S,-0.5,1730147697606729472,,0.00242501,-1.00630093,0.02973128,0.01287122,0.03050050,0.01895380,0.00000273,-0.00100646,0.00003027,0.00001188,0.00003136,0.00001929,,,,,,,,,,,,,,,,,,,,,,,
S,-0.5,1730147697607725056,,0.00077476,-1.00615847,0.02954311,0.01197098,0.02701496,0.02130597,0.00000109,-0.00100669,0.00002951,0.00001270,0.00002880,0.00002135,,,,,,,,,,,,,,,,,,,,,,,
S,-0.5,1730147697607743488,,,,,,,,,,,,,,0.20842388,0.21446824,-0.68573123,-0.66357791,-55.83749771,0.01177917,0.01255193,0.00402012,0.00370575,0.01277010,0.02321021,0.01421124,0.02955260,-9.84721375,0.29973760,0.04141346,-0.07220554,-0.01760599,0.01186085,9.77500820,-0.31734359,0.72927856,0.00000000
S,-0.5,1730147697608720128,,0.00014560,-1.00635040,0.03029442,0.01203605,0.02981215,0.01872921,-0.00000027,-0.00100627,0.00003010,0.00001174,0.00002819,0.00001995,,,,,,,,,,,,,,,,,,,,,,,
S,-0.5,1730147697609718016,,0.00106983,-1.00810862,0.03314242,0.01040684,0.03385028,0.01847426,0.00000070,-0.00100785,0.00003286,0.00001072,0.00003401,0.00001770,,,,,,,,,,,,,,,,,,,,,,,
S,-0.5,1730147697609741568,,,,,,,,,,,,,,0.20844875,0.21447641,-0.68573850,-0.66355991,-55.83749771,0.01177917,0.01255193,0.00402012,0.00370575,0.01431235,0.02640456,0.01822075,0.01066097,-9.87229538,0.28936550,0.02285469,-0.09729576,-0.02824256,0.01219372,9.77499962,-0.31760806,0.72927856,0.00000000
S,-0.5,1730147697610717184,,0.00155154,-1.00632787,0.03593975,0.01077466,0.03281599,0.02341897,0.00000176,-0.00100721,0.00003634,0.00001019,0.00003429,0.00002244,,,,,,,,,,,,,,,,,,,,,,,
S,-0.5,1730147697611715584,,-0.00237078,-1.00690770,0.03886895,0.00672605,0.02451369,0.01888212,-0.00000150,-0.00100624,0.00003923,0.00000758,0.00002569,0.00002128,,,,,,,,,,,,,,,,,,,,,,,
S,-0.5,1730147697611740160,,,,,,,,,,,,,,0.20847666,0.21448720,-0.68574482,-0.66354114,-55.83749771,0.01177917,0.01255193,0.00402012,0.00370575,0.01234069,0.03161232,0.01457535,0.00688248,-9.88363457,0.32228601,0.01941488,-0.10864449,0.00441816,0.01253241,9.77499008,-0.31786785,0.72927856,0.00000000
