state,extension,timestamp,invalid_fields,scaledAccelX,scaledAccelY,scaledAccelZ,scaledGyroX,scaledGyroY,scaledGyroZ,deltaVelX,deltaVelY,deltaVelZ,deltaThetaX,deltaThetaY,deltaThetaZ,estOrientQuaternionW,estOrientQuaternionX,estOrientQuaternionY,estOrientQuaternionZ,estPressureAlt,estAttitudeUncertQuaternionW,estAttitudeUncertQuaternionX,estAttitudeUncertQuaternionY,estAttitudeUncertQuaternionZ,estAngularRateX,estAngularRateY,estAngularRateZ,estCompensatedAccelX,estCompensatedAccelY,estCompensatedAccelZ,estLinearAccelX,estLinearAccelY,estLinearAccelZ,estGravityVectorX,estGravityVectorY,estGravityVectorZ,current_altitude,speed
S,-0.5,1730147727805583790,,-0.06092962,0.97629648,-0.00003895,0.03233382,0.02239524,-0.00396364,-0.00006035,0.00097624,0.00000059,0.00003185,0.00002268,-0.00000334,,,,,,,,,,,,,,,,,,,,,,,
S,-0.5,1730147727806583296,,-0.06254292,0.97846532,0.00131917,0.03594721,0.02907661,-0.00426063,-0.00006267,0.00097868,0.00000141,0.00003605,0.00002893,-0.00000419,,,,,,,,,,,,,,,,,,,,,,,
S,-0.5,1730147727811911281,,,,,,,,,,,,,,0.69958282,-0.67776579,-0.18002377,0.13714564,-55.95375824,0.00193480,0.00238192,0.00921435,0.00802765,0.03289554,0.01812864,-0.00855607,-0.58753878,9.55319214,-0.01083546,0.05773538,-0.20433712,0.15004906,0.64527416,-9.75752926,0.16088451,0.00000000,0.00000000
S,-0.5,1730147727807587840,,-0.06295308,0.97771972,0.00251199,0.03632680,0.03879765,-0.00320888,-0.00006339,0.00097855,0.00000273,0.00003741,0.00003916,-0.00000349,,,,,,,,,,,,,,,,,,,,,,,
S,-0.5,1730147727808591360,,-0.06279797,0.97628063,0.00391723,0.03696118,0.04458426,-0.00002099,-0.00006296,0.00097630,0.00000404,0.00003697,0.00004663,-0.00000027,,,,,,,,,,,,,,,,,,,,,,,
S,-0.5,1730147727813909504,,,,,,,,,,,,,,0.69961184,-0.67774278,-0.18000869,0.13713129,-55.95375824,0.00193480,0.00238192,0.00921435,0.00802765,0.03763298,0.02654709,-0.00733488,-0.61460352,9.59755135,0.01381725,0.03081828,-0.15995693,0.17541923,0.64542180,-9.75750828,0.16160198,0.00000000,0.00000000
S,-0.5,1730147727809594112,,-0.06292675,0.97633368,0.00344310,0.03320153,0.04743318,-0.00097203,-0.00006285,0.00097587,0.00000398,0.00003409,0.00004876,0.00000022,,,,,,,,,,,,,,,,,,,,,,,
S,-0.5,1730147727810600960,,-0.06269131,0.97779822,0.00368908,0.04101054,0.05744279,0.00657676,-0.00006277,0.00097755,0.00000349,0.00003840,0.00005653,0.00000490,,,,,,,,,,,,,,,,,,,,,,,
S,-0.5,1730147727815911168,,,,,,,,,,,,,,0.69964474,-0.67772001,-0.17998235,0.13711040,-55.95375824,0.00193480,0.00238192,0.00921435,0.00802765,0.03854609,0.04424426,-0.00340770,-0.61739182,9.57427979,0.03963441,0.02812350,-0.18320847,0.20202483,0.64551532,-9.75748825,0.16239043,0.00000000,0.00000000
S,-0.5,1730147727811607040,,-0.06378519,0.98014677,0.00190558,0.04569872,0.06409771,0.00560509,-0.00006351,0.00098019,0.00000231,0.00004733,0.00006607,0.00000818,,,,,,,,,,,,,,,,,,,,,,,
S,-0.5,1730147727812612096,,-0.06601384,0.97864413,0.00154389,0.04739054,0.06816970,0.01265322,-0.00006596,0.00097966,0.00000104,0.00004858,0.00006955,0.00001106,,,,,,,,,,,,,,,,,,,,,,,
S,-0.5,1730147727817911296,,,,,,,,,,,,,,0.69968033,-0.67769915,-0.17994310,0.13708355,-55.95375824,0.00193480,0.00238192,0.00921435,0.00802765,0.03997432,0.05414804,0.00176019,-0.61560947,9.58648109,0.03425545,0.02990586,-0.17099380,0.19747585,0.64551532,-9.75747490,0.16322039,0.00000000,0.00000000
S,-0.5,1730147727813616384,,-0.06480416,0.98023331,0.00131703,0.04220001,0.07242504,0.00913832,-0.00006573,0.00097947,0.00000124,0.00004368,0.00007295,0.00001202,,,,,,,,,,,,,,,,,,,,,,,
S,-0.5,1730147727814619648,,-0.06463026,0.98043483,0.00062903,0.04893835,0.07687013,0.00849400,-0.00006428,0.00098090,0.00000068,0.00004606,0.00007742,0.00000749,,,,,,,,,,,,,,,,,,,,,,,
S,-0.5,1730147727819909632,,,,,,,,,,,,,,0.69972110,-0.67767680,-0.17989120,0.13705394,-55.95375824,0.00193480,0.00238192,0.00921435,0.00802765,0.05015479,0.06716526,0.00792105,-0.64681613,9.60722923,0.01021646,-0.00141531,-0.15023708,0.17439406,0.64540082,-9.75746632,0.16417760,0.00000000,0.00000000
S,-0.5,1730147727815622400,,-0.06718115,0.98053038,0.00149215,0.05199911,0.08000704,0.00694385,-0.00006666,0.00098058,0.00000112,0.00005359,0.00008085,0.00000702,,,,,,,,,,,,,,,,,,,,,,,
S,-0.5,1730147727816624128,,-0.06626745,0.98195910,0.00121361,0.05090583,0.08413825,0.00635558,-0.00006725,0.00098173,0.00000154,0.00005208,0.00008439,0.00000597,,,,,,,,,,,,,,,,,,,,,,,
S,-0.5,1730147727821906432,,,,,,,,,,,,,,0.69976616,-0.67765343,-0.17983060,0.13701884,-55.95375824,0.00193480,0.00238192,0.00921435,0.00802765,0.04764116,0.07503412,0.00434993,-0.63034374,9.61938286,0.00668424,0.01491398,-0.13807487,0.17190725,0.64525771,-9.75745773,0.16522300,0.00000000,0.00000000
S,-0.5,1730147727817625088,,-0.06644836,0.98400360,0.00021845,0.05242439,0.09031331,0.00605598,-0.00006612,0.00098409,0.00000031,0.00005180,0.00009051,0.00000592,,,,,,,,,,,,,,,,,,,,,,,
S,-0.5,1730147727818625024,,-0.06755194,0.98414969,0.00056518,0.05166539,0.09318620,0.00757405,-0.00006741,0.00098477,0.00000019,0.00005229,0.00009463,0.00000720,,,,,,,,,,,,,,,,,,,,,,,
S,-0.5,1730147727823906048,,,,,,,,,,,,,,0.69981408,-0.67762941,-0.17976628,0.13697726,-55.95375824,0.00193480,0.00238192,0.00921435,0.00802765,0.05365805,0.08200325,0.00282675,-0.65945333,9.62748146,0.01509310,-0.01429182,-0.12996387,0.18140513,0.64516151,-9.75744534,0.16631204,0.00000000,0.00000000
S,-0.5,1730147727819629056,,-0.06818091,0.98462707,-0.00127284,0.04443619,0.08909420,0.00930436,-0.00006842,0.00098459,-0.00000083,0.00004551,0.00009075,0.00000947,,,,,,,,,,,,,,,,,,,,,,,
S,-0.5,1730147727820632320,,-0.06847511,0.98777032,-0.00194569,0.04476437,0.09528021,0.01048643,-0.00006862,0.00098735,-0.00000241,0.00004240,0.00009285,0.00001082,,,,,,,,,,,,,,,,,,,,,,,
S,-0.5,1730147727825904128,,,,,,,,,,,,,,0.69986570,-0.67760432,-0.17969561,0.13693029,-55.95375824,0.00193480,0.00238192,0.00921435,0.00802765,0.05386600,0.09224688,0.00406057,-0.66105556,9.65733337,0.00181777,-0.01599038,-0.10009861,0.16929136,0.64506519,-9.75743198,0.16747358,0.00000000,0.00000000
S,-0.5,1730147727821634560,,-0.06861460,0.98564470,-0.00262634,0.04876814,0.09922397,0.01183957,-0.00006868,0.00098703,-0.00000272,0.00004815,0.00010048,0.00001197,,,,,,,,,,,,,,,,,,,,,,,
S,-0.5,1730147727822636032,,-0.06999519,0.98713034,-0.00398976,0.04850312,0.09850433,0.00795897,-0.00006979,0.00098618,-0.00000396,0.00004983,0.00009989,0.00000909,,,,,,,,,,,,,,,,,,,,,,,
S,-0.5,1730147727827905536,,,,,,,,,,,,,,0.69991446,-0.67758363,-0.17962100,0.13688128,-56.45051575,0.00193480,0.00238192,0.00921435,0.00802765,0.04398295,0.09047082,0.00768015,-0.67294961,9.68260765,-0.02361676,-0.02802944,-0.07481575,0.14492929,0.64492017,-9.75742340,0.16854605,-0.49675751,0.00000000
S,-0.5,1730147727823642112,,-0.07157737,0.98586708,-0.00551997,0.04393217,0.10130935,0.00883341,-0.00007173,0.00098657,-0.00000568,0.00004468,0.00010057,0.00000744,,,,,,,,,,,,,,,,,,,,,,,
S,-0.5,1730147727824647168,,-0.07147066,0.98419070,-0.00763176,0.03826293,0.10137375,0.00877123,-0.00007199,0.00098409,-0.00000773,0.00003784,0.00010225,0.00000906,,,,,,,,,,,,,,,,,,,,,,,
S,-0.5,1730147727829905152,,,,,,,,,,,,,,0.69996274,-0.67756432,-0.17954406,0.13683093,-56.45051575,0.00193480,0.00238192,0.00921435,0.00802765,0.05140502,0.09750752,0.00595242,-0.68439627,9.67115879,-0.03882289,-0.03964078,-0.08625698,0.13077560,0.64475548,-9.75741577,0.16959849,-0.49675751,0.00000000
S,-0.5,1730147727825651456,,-0.06867749,0.98467284,-0.00982932,0.03739268,0.10127468,0.00760288,-0.00006915,0.00098405,-0.00001010,0.00003575,0.00010131,0.00000780,,,,,,,,,,,,,,,,,,,,,,,
S,-0.5,1730147727826654720,,-0.06832422,0.98698169,-0.01128987,0.02956928,0.09858385,0.00739984,-0.00006750,0.00098672,-0.00001172,0.00003071,0.00009904,0.00000706,,,,,,,,,,,,,,,,,,,,,,,
S,-0.5,1730147727831903488,,,,,,,,,,,,,,0.70001042,-0.67754710,-0.17946474,0.13677636,-56.45051575,0.00193480,0.00238192,0.00921435,0.00802765,0.03941733,0.09987199,0.00591862,-0.70601559,9.65065861,-0.07585056,-0.06140947,-0.10674858,0.09476164,0.64460611,-9.75740719,0.17061220,-0.49675751,0.00000000
S,-0.5,1730147727827657472,,-0.06846879,0.98963672,-0.01174491,0.02761707,0.09756938,0.00609557,-0.00006833,0.00098989,-0.00001213,0.00002548,0.00009690,0.00000627,,,,,,,,,,,,,,,,,,,,,,,
S,-0.5,1730147727828659200,,-0.06831537,0.98996711,-0.01315471,0.02751206,0.09388372,0.00288485,-0.00006839,0.00099075,-0.00001304,0.00002691,0.00009423,0.00000305,,,,,,,,,,,,,,,,,,,,,,,
S,-0.5,1730147727833900288,,,,,,,,,,,,,,0.70005167,-0.67753631,-0.17938772,0.13671966,-56.45051575,0.00193480,0.00238192,0.00921435,0.00802765,0.03229303,0.09665830,0.00392256,-0.66194290,9.67637634,-0.11496916,-0.01746649,-0.08102512,0.05646930,0.64447641,-9.75740147,0.17143846,-0.49675751,0.00000000
S,-0.5,1730147727829660160,,-0.06762784,0.98868924,-0.01511973,0.02943185,0.09153208,0.00431949,-0.00006770,0.00098903,-0.00001521,0.00002905,0.00009079,0.00000304,,,,,,,,,,,,,,,,,,,,,,,
S,-0.5,1730147727830660096,,-0.06600651,0.98880166,-0.01824875,0.02447616,0.09129089,-0.00065220,-0.00006608,0.00098837,-0.00001831,0.00002599,0.00009059,0.00000071,,,,,,,,,,,,,,,,,,,,,,,
S,-0.5,1730147727835900160,,,,,,,,,,,,,,0.70008892,-0.67752826,-0.17931628,0.13666259,-56.45051575,0.00193480,0.00238192,0.00921435,0.00802765,0.02848903,0.09184753,-0.00008929,-0.67067236,9.71595955,-0.12791310,-0.02626574,-0.04143429,0.04424042,0.64440662,-9.75739384,0.17215352,-0.49675751,0.00000000
S,-0.5,1730147727831664128,,-0.06497844,0.98853713,-0.02099896,0.01886287,0.09080266,-0.00168335,-0.00006465,0.00098862,-0.00002149,0.00001831,0.00009081,-0.00000308,,,,,,,,,,,,,,,,,,,,,,,
S,-0.5,1730147727832667392,,-0.06436427,0.98793238,-0.02470223,0.02143113,0.08748622,-0.00014816,-0.00006415,0.00098796,-0.00002490,0.00001918,0.00008793,-0.00000076,,,,,,,,,,,,,,,,,,,,,,,
S,-0.5,1730147727837898240,,,,,,,,,,,,,,0.70012420,-0.67752069,-0.17925029,0.13660574,-56.45051575,0.00193480,0.00238192,0.00921435,0.00802765,0.02756695,0.08820326,-0.00243452,-0.64804751,9.69264221,-0.17951544,-0.00364721,-0.06474018,-0.00669934,0.64440030,-9.75738239,0.17281610,-0.49675751,0.00000000
S,-0.5,1730147727833669632,,-0.06438420,0.98661864,-0.02614588,0.01952072,0.08387290,-0.00004197,-0.00006419,0.00098666,-0.00002706,0.00002069,0.00008347,0.00000043,,,,,,,,,,,,,,,,,,,,,,,
S,-0.5,1730147727834671104,,-0.06699442,0.98714066,-0.02932588,0.01750093,0.07933716,-0.00058002,-0.00006653,0.00098663,-0.00002921,0.00001726,0.00007901,-0.00000045,,,,,,,,,,,,,,,,,,,,,,,
S,-0.5,1730147727839899648,,,,,,,,,,,,,,0.70015657,-0.67751509,-0.17918831,0.13654900,-56.45051575,0.00193480,0.00238192,0.00921435,0.00802765,0.02075708,0.08555045,-0.00389764,-0.62908149,9.68855953,-0.24423325,0.01535058,-0.06880951,-0.07083386,0.64443207,-9.75736904,0.17339939,-0.49675751,0.00000000
S,-0.5,1730147727835676928,,-0.06846363,0.98836064,-0.02915035,0.01053227,0.07463670,-0.00339485,-0.00006903,0.00098831,-0.00003019,0.00001116,0.00007405,-0.00000305,,,,,,,,,,,,,,,,,,,,,,,
S,-0.5,1730147727836681984,,-0.06835995,0.98644751,-0.02937830,0.00776326,0.06544690,-0.00182383,-0.00006885,0.00098718,-0.00002928,0.00000605,0.00006562,-0.00000301,,,,,,,,,,,,,,,,,,,,,,,
S,-0.5,1730147727841899520,,,,,,,,,,,,,,0.70018506,-0.67751169,-0.17913139,0.13649499,-56.45051575,0.00193480,0.00238192,0.00921435,0.00802765,0.01883912,0.07662819,-0.00359075,-0.65240318,9.67551136,-0.28642583,-0.00792634,-0.08184814,-0.11253446,0.64447683,-9.75735950,0.17389137,-0.49675751,0.00000000
S,-0.5,1730147727837686016,,-0.06809993,0.98979211,-0.03047286,0.00899115,0.06451940,-0.00243171,-0.00006811,0.00098858,-0.00003035,0.00000789,0.00006176,-0.00000182,,,,,,,,,,,,,,,,,,,,,,,
S,-0.5,1730147727838689024,,-0.06838943,0.99038178,-0.03142389,0.00951857,0.06456418,-0.00445950,-0.00006825,0.00099134,-0.00003160,0.00000981,0.00006426,-0.00000428,,,,,,,,,,,,,,,,,,,,,,,
S,-0.5,1730147727843897856,,,,,,,,,,,,,,0.70020717,-0.67751104,-0.17908390,0.13644657,-56.45051575,0.00193480,0.00238192,0.00921435,0.00802765,0.00762749,0.06323747,-0.00614755,-0.67515314,9.68096256,-0.28714404,-0.03060549,-0.07638359,-0.11290549,0.64454764,-9.75734615,0.17423855,-0.49675751,0.00000000
S,-0.5,1730147727839691520,,-0.06894003,0.98992342,-0.03219327,0.00988244,0.05934486,0.00109181,-0.00006893,0.00099019,-0.00003236,0.00000998,0.00006031,-0.00000056,,,,,,,,,,,,,,,,,,,,,,,
S,-0.5,1730147727840693248,,-0.06882042,0.98871958,-0.03187623,0.00735766,0.05680456,-0.00024986,-0.00006902,0.00098879,-0.00003218,0.00000793,0.00005560,0.00000176,,,,,,,,,,,,,,,,,,,,,,,
S,-0.5,1730147727845894400,,,,,,,,,,,,,,0.70022577,-0.67751169,-0.17904340,0.13640113,-56.45051575,0.00193480,0.00238192,0.00921435,0.00802765,0.01139291,0.06187789,-0.00742688,-0.66934574,9.72171688,-0.30988702,-0.02468729,-0.03561878,-0.13538152,0.64465845,-9.75733566,0.17450550,-0.49675751,0.00000000
S,-0.5,1730147727841693952,,-0.06778565,0.98757523,-0.03119201,0.00750522,0.05260211,-0.00013337,-0.00006794,0.00098740,-0.00003122,0.00000667,0.00005256,-0.00000058,,,,,,,,,,,,,,,,,,,,,,,
S,-0.5,1730147727842693888,,-0.06809637,0.98446578,-0.03321062,0.00961742,0.04805798,-0.00352695,-0.00006771,0.00098467,-0.00003263,0.00000928,0.00004755,-0.00000287,,,,,,,,,,,,,,,,,,,,,,,
S,-0.5,1730147727847894272,,,,,,,,,,,,,,0.70024377,-0.67751145,-0.17900465,0.13636093,-56.45051575,0.00193480,0.00238192,0.00921435,0.00802765,0.00951155,0.05322182,-0.00138136,-0.67682791,9.69674206,-0.31556368,-0.03210360,-0.06058407,-0.14077958,0.64472431,-9.75732613,0.17478409,-0.49675751,0.00000000
S,-0.5,1730147727843697920,,-0.06952198,0.98445874,-0.03227240,0.00714120,0.04330947,-0.00012021,-0.00006936,0.00098347,-0.00003309,0.00000826,0.00004273,-0.00000182,,,,,,,,,,,,,,,,,,,,,,,
S,-0.5,1730147727844700928,,-0.06968285,0.98350799,-0.03226758,0.00866407,0.03629928,-0.00004092,-0.00007011,0.00098368,-0.00003197,0.00000760,0.00003606,0.00000103,,,,,,,,,,,,,,,,,,,,,,,
S,-0.5,1730147727849892352,,,,,,,,,,,,,,0.70025998,-0.67751038,-0.17897132,0.13632683,-56.45051575,0.00193480,0.00238192,0.00921435,0.00802765,0.01085993,0.04516300,-0.00601562,-0.66401553,9.65627956,-0.31995422,-0.01923645,-0.10103893,-0.14490783,0.64477909,-9.75731850,0.17504638,-0.49675751,0.00000000
S,-0.5,1730147727845703424,,-0.07124382,0.98249125,-0.03357923,0.00780732,0.03280943,-0.00041858,-0.00007101,0.00098237,-0.00003334,0.00000845,0.00003121,-0.00000032,,,,,,,,,,,,,,,,,,,,,,,
S,-0.5,1730147727846704896,,-0.07206818,0.98467821,-0.03217021,0.00669583,0.02709202,-0.00147495,-0.00007242,0.00098396,-0.00003284,0.00000663,0.00002702,-0.00000140,,,,,,,,,,,,,,,,,,,,,,,
S,-0.5,1730147727851888896,,,,,,,,,,,,,,0.70027441,-0.67750800,-0.17894511,0.13629907,-56.45051575,0.00193480,0.00238192,0.00921435,0.00802765,0.00917850,0.03367854,-0.00211324,-0.68751669,9.64659023,-0.31351578,-0.04267204,-0.11071873,-0.13822229,0.64484465,-9.75730896,0.17529349,-0.49675751,0.00000000
S,-0.5,1730147727847705600,,-0.07363633,0.98595589,-0.03165585,0.01058145,0.02453933,0.00079472,-0.00007361,0.00098642,-0.00003130,0.00000952,0.00002318,0.00000005,,,,,,,,,,,,,,,,,,,,,,,
S,-0.5,1730147727848710400,,-0.07227572,0.98627305,-0.03000197,0.01441402,0.02430389,0.00004509,-0.00007302,0.00098662,-0.00003014,0.00001495,0.00002353,0.00000090,,,,,,,,,,,,,,,,,,,,,,,
S,-0.5,1730147727853888768,,,,,,,,,,,,,,0.70028597,-0.67750531,-0.17892577,0.13627854,-56.45051575,0.00193480,0.00238192,0.00921435,0.00802765,0.00820439,0.02463705,-0.00454554,-0.71015227,9.64932442,-0.32208517,-0.06525278,-0.10797882,-0.14658439,0.64489949,-9.75730324,0.17550078,-0.49675751,0.00000000
S,-0.5,1730147727849714432,,-0.07165144,0.98761755,-0.02872709,0.01222076,0.02130227,0.00081014,-0.00007133,0.00098747,-0.00002843,0.00001384,0.00002177,0.00000043,,,,,,,,,,,,,,,,,,,,,,,
S,-0.5,1730147727850717440,,-0.07242846,0.98664087,-0.02892903,0.01262985,0.01858987,0.00264972,-0.00007209,0.00098725,-0.00002849,0.00001186,0.00001813,0.00000256,,,,,,,,,,,,,,,,,,,,,,,
S,-0.5,1730147727855887104,,,,,,,,,,,,,,0.70029891,-0.67749918,-0.17891034,0.13626286,-56.45051575,0.00189854,0.00238841,0.00920562,0.00804414,0.01653384,0.02115120,-0.00223858,-0.71610129,9.67545891,-0.29556444,-0.07114351,-0.08183479,-0.11979288,0.64495778,-9.75729370,0.17577156,-0.49675751,0.00000000
S,-0.5,1730147727851719680,,-0.07105359,0.98424906,-0.02886236,0.01906760,0.01705417,-0.00284538,-0.00007155,0.00098437,-0.00002894,0.00001803,0.00001647,-0.00000126,,,,,,,,,,,,,,,,,,,,,,,
S,-0.5,1730147727852720896,,-0.07005795,0.98419553,-0.02653380,0.02512126,0.01585617,-0.00099825,-0.00006980,0.00098344,-0.00002694,0.00002607,0.00001559,-0.00000308,,,,,,,,,,,,,,,,,,,,,,,
S,-0.5,1730147727857883648,,,,,,,,,,,,,,0.70024556,-0.67753118,-0.17896990,0.13629948,-56.45051575,0.00187767,0.00236560,0.00910234,0.00797966,0.01343548,0.01574449,-0.00058352,-0.70694572,9.68157959,-0.27935567,-0.06192952,-0.07573223,-0.10485034,0.64501619,-9.75731182,0.17450534,-0.49675751,0.00000000
S,-0.5,1730147727853721600,,-0.06907808,0.98464239,-0.02473091,0.02282120,0.01303129,0.00053812,-0.00006894,0.00098454,-0.00002432,0.00002517,0.00001316,0.00000085,,,,,,,,,,,,,,,,,,,,,,,
S,-0.5,1730147727854721280,,-0.06946212,0.98517650,-0.02451968,0.02604317,0.00969676,-0.00043044,-0.00006908,0.00098522,-0.00002398,0.00002473,0.00000940,0.00000023,,,,,,,,,,,,,,,,,,,,,,,
S,-0.5,1730147727859883520,,,,,,,,,,,,,,0.70026255,-0.67751819,-0.17895928,0.13629097,-56.45051575,0.00187767,0.00236560,0.00910234,0.00797966,0.02764866,0.01320226,-0.00622554,-0.68451750,9.64428997,-0.26415497,-0.03943992,-0.11301136,-0.08922964,0.64507759,-9.75730133,0.17492533,-0.49675751,0.00000000
S,-0.5,1730147727855725824,,-0.06843695,0.98429793,-0.02483218,0.03089499,0.01136679,0.00115223,-0.00006875,0.00098463,-0.00002471,0.00003104,0.00001000,0.00000056,,,,,,,,,,,,,,,,,,,,,,,
S,-0.5,1730147727856729344,,-0.06728827,0.98325169,-0.02398984,0.03515792,0.00936311,-0.00150840,-0.00006717,0.00098316,-0.00002424,0.00003593,0.00001026,-0.00000052,,,,,,,,,,,,,,,,,,,,,,,
S,-0.5,1730147727861881856,,,,,,,,,,,,,,0.70028323,-0.67749983,-0.17895162,0.13628575,-56.45051575,0.00187767,0.00236560,0.00910234,0.00797966,0.02630373,0.00702068,-0.00290796,-0.67744833,9.66172409,-0.23520386,-0.03228539,-0.09556103,-0.05973972,0.64516294,-9.75728512,0.17546414,-0.49675751,0.00000000
S,-0.5,1730147727857731840,,-0.06905509,0.98368478,-0.01892687,0.03560549,0.01309624,-0.00325741,-0.00006837,0.00098327,-0.00001958,0.00003688,0.00001178,-0.00000379,,,,,,,,,,,,,,,,,,,,,,,
S,-0.5,1730147727858733312,,-0.07004830,0.98284698,-0.01678444,0.03580801,0.01285218,-0.00190634,-0.00007043,0.00098314,-0.00001556,0.00003591,0.00001408,-0.00000271,,,,,,,,,,,,,,,,,,,,,,,
S,-0.5,1730147727863878656,,,,,,,,,,,,,,0.70030665,-0.67747790,-0.17894429,0.13628411,-56.45051575,0.00187767,0.00236560,0.00910234,0.00797966,0.03750586,0.00787600,-0.00366374,-0.65871990,9.64152813,-0.23774028,-0.01349497,-0.11574173,-0.06164314,0.64522493,-9.75726986,0.17609714,-0.49675751,0.00000000
S,-0.5,1730147727859734272,,-0.07021730,0.98246849,-0.01425167,0.03699053,0.01371539,-0.00023896,-0.00007050,0.00098227,-0.00001403,0.00003684,0.00001348,-0.00000011,,,,,,,,,,,,,,,,,,,,,,,
S,-0.5,1730147727860734208,,-0.06595612,0.98311985,-0.01180849,0.03778214,0.00796605,0.00071506,-0.00006678,0.00098288,-0.00001145,0.00003801,0.00000929,0.00000107,,,,,,,,,,,,,,,,,,,,,,,
S,-0.5,1730147727865884160,,,,,,,,,,,,,,0.70033443,-0.67745215,-0.17893554,0.13628086,-56.45051575,0.00187767,0.00236560,0.00910234,0.00797966,0.03749178,0.01170207,-0.00585107,-0.69068372,9.64128113,-0.15261146,-0.04536963,-0.11596966,0.02422932,0.64531410,-9.75725079,0.17684078,-0.49675751,0.00000000
S,-0.5,1730147727861746944,,-0.06638973,0.98225206,-0.01119145,0.03916763,0.00794408,0.00304836,-0.00006495,0.00098262,-0.00001053,0.00003917,0.00000612,0.00000293,,,,,,,,,,,,,,,,,,,,,,,
S,-0.5,1730147727862758912,,-0.06642487,0.97893047,-0.01016861,0.04014455,0.01415835,-0.00050915,-0.00006656,0.00097926,-0.00001016,0.00004041,0.00001302,0.00000088,,,,,,,,,,,,,,,,,,,,,,,
S,-0.5,1730147727867890944,,,,,,,,,,,,,,0.70036274,-0.67742574,-0.17892645,0.13627869,-55.96961212,0.00187767,0.00236560,0.00910234,0.00797966,0.03959281,0.00690267,-0.00207007,-0.65492767,9.63877010,-0.11224942,-0.00953996,-0.11846256,0.06535546,0.64538771,-9.75723267,0.17760488,-0.01585388,0.00000000
S,-0.5,1730147727863769856,,-0.06631353,0.97832173,-0.00906744,0.03746384,0.01614776,-0.00009343,-0.00006635,0.00097738,-0.00000894,0.00003826,0.00001776,-0.00000130,,,,,,,,,,,,,,,,,,,,,,,
S,-0.5,1730147727864779776,,-0.06535538,0.97699356,-0.00838008,0.03308756,0.02227251,-0.00324901,-0.00006549,0.00097704,-0.00000815,0.00003303,0.00002179,-0.00000254,,,,,,,,,,,,,,,,,,,,,,,
S,-0.5,1730147727869895936,,,,,,,,,,,,,,0.70039225,-0.67739797,-0.17891622,0.13627852,-55.96961212,0.00187767,0.00236560,0.00910234,0.00797966,0.04198616,0.01063954,-0.00226258,-0.65269804,9.60323715,-0.09961782,-0.00727117,-0.15397739,0.07879458,0.64542687,-9.75721455,0.17841241,-0.01585388,0.00000000
S,-0.5,1730147727865788928,,-0.06540525,0.97974306,-0.00653780,0.02798338,0.02314395,-0.00488148,-0.00006509,0.00097882,-0.00000665,0.00002752,0.00002494,-0.00000559,,,,,,,,,,,,,,,,,,,,,,,
S,-0.5,1730147727866797056,,-0.06705717,0.98111212,-0.00555095,0.02855681,0.02464849,0.00165630,-0.00006677,0.00098174,-0.00000514,0.00002683,0.00002465,-0.00000005,,,,,,,,,,,,,,,,,,,,,,,
S,-0.5,1730147727871899136,,,,,,,,,,,,,,0.70042139,-0.67737246,-0.17890316,0.13627242,-55.96961212,0.00187767,0.00236560,0.00910234,0.00797966,0.03460749,0.01941021,-0.00568585,-0.64227796,9.58150101,-0.07996395,0.00322121,-0.17569447,0.09921451,0.64549917,-9.75719547,0.17917846,-0.01585388,0.00000000
S,-0.5,1730147727867804160,,-0.06596430,0.98211414,-0.00828773,0.02555098,0.02430530,0.00053377,-0.00006669,0.00098237,-0.00000748,0.00002628,0.00002485,0.00000282,,,,,,,,,,,,,,,,,,,,,,,
S,-0.5,1730147727868810240,,-0.06506807,0.98203659,-0.00715742,0.02057819,0.02699912,0.00207172,-0.00006488,0.00098237,-0.00000823,0.00002052,0.00002640,0.00000144,,,,,,,,,,,,,,,,,,,,,,,
S,-0.5,1730147727873900544,,,,,,,,,,,,,,0.70044708,-0.67735243,-0.17888728,0.13626082,-55.96961212,0.00187767,0.00236560,0.00910234,0.00797966,0.02840602,0.02226976,-0.00319371,-0.65481406,9.62756634,-0.05044312,-0.00923562,-0.12961197,0.12937747,0.64557844,-9.75717831,0.17982060,-0.01585388,0.00000000
S,-0.5,1730147727869815808,,-0.06561299,0.98164654,-0.00440690,0.01532442,0.02936889,0.00194761,-0.00006523,0.00098169,-0.00000455,0.00001470,0.00002980,0.00000246,,,,,,,,,,,,,,,,,,,,,,,
S,-0.5,1730147727870820352,,-0.06597386,0.98306161,-0.00437788,0.01261969,0.03095086,0.00222976,-0.00006608,0.00098268,-0.00000351,0.00001144,0.00003142,0.00000214,,,,,,,,,,,,,,,,,,,,,,,
S,-0.5,1730147727875899904,,,,,,,,,,,,,,0.70046866,-0.67733747,-0.17886929,0.13624795,-55.96961212,0.00187767,0.00236560,0.00910234,0.00797966,0.02210300,0.02401769,-0.00170754,-0.63628632,9.63375568,-0.08074275,0.00933146,-0.12341118,0.09960048,0.64561778,-9.75716686,0.18034323,-0.01585388,0.00000000
S,-0.5,1730147727871823872,,-0.06699248,0.98247433,-0.00328679,0.01147371,0.03644781,0.00235629,-0.00006692,0.00098303,-0.00000348,0.00001082,0.00003595,0.00000242,,,,,,,,,,,,,,,,,,,,,,,
S,-0.5,1730147727872826368,,-0.06673159,0.98200256,-0.00121902,0.01324013,0.04076691,0.00167438,-0.00006710,0.00098190,-0.00000125,0.00001255,0.00004173,0.00000184,,,,,,,,,,,,,,,,,,,,,,,
S,-0.5,1730147727877905408,,,,,,,,,,,,,,0.70048547,-0.67732853,-0.17884924,0.13623217,-55.96961212,0.00187767,0.00236560,0.00910234,0.00797966,0.01301688,0.02903501,-0.00100353,-0.64804083,9.63680172,-0.03439559,-0.00240612,-0.12035561,0.14632414,0.64563471,-9.75715733,0.18071973,-0.01585388,0.00000000
S,-0.5,1730147727873836288,,-0.06765535,0.98273534,0.00010252,0.00679174,0.04208144,0.00354237,-0.00006740,0.00098245,0.00000052,0.00000853,0.00004322,0.00000299,,,,,,,,,,,,,,,,,,,,,,,
S,-0.5,1730147727874845184,,-0.06734149,0.98265755,0.00153318,0.00686118,0.04151842,0.00523837,-0.00006769,0.00098291,0.00000169,0.00000480,0.00004204,0.00000552,,,,,,,,,,,,,,,,,,,,,,,
S,-0.5,1730147727879909120,,,,,,,,,,,,,,0.70050091,-0.67732346,-0.17882422,0.13621062,-55.96961212,0.00187767,0.00236560,0.00910234,0.00797966,0.01413250,0.03934916,-0.00130397,-0.65805829,9.62916279,-0.01223459,-0.01241338,-0.12798882,0.16879335,0.64564490,-9.75715160,0.18102795,-0.01585388,0.00000000
S,-0.5,1730147727875853056,,-0.06704694,0.98275065,0.00231373,0.00848581,0.04797635,0.00925989,-0.00006700,0.00098271,0.00000263,0.00000821,0.00004662,0.00000907,,,,,,,,,,,,,,,,,,,,,,,
S,-0.5,1730147727876860160,,-0.06924684,0.98611015,0.00308732,0.00978844,0.04919279,0.00731343,-0.00006875,0.00098553,0.00000320,0.00001007,0.00005103,0.00000895,,,,,,,,,,,,,,,,,,,,,,,
S,-0.5,1730147727881911552,,,,,,,,,,,,,,0.70051485,-0.67732173,-0.17879479,0.13618608,-55.96961212,0.00187767,0.00236560,0.00910234,0.00797966,0.00637408,0.03965639,0.00238231,-0.66383505,9.63900566,0.01661457,-0.01821494,-0.11814213,0.19789398,0.64562011,-9.75714779,0.18127941,-0.01585388,0.00000000
S,-0.5,1730147727877866496,,-0.06994642,0.98626947,0.00338008,0.01195237,0.05462588,0.00795517,-0.00007052,0.00098731,0.00000357,0.00001197,0.00005403,0.00000722,,,,,,,,,,,,,,,,,,,,,,,
S,-0.5,1730147727878874880,,-0.06936362,0.98767054,0.00073845,0.01589168,0.05578396,0.00811283,-0.00006969,0.00098747,0.00000131,0.00001586,0.00005730,0.00000829,,,,,,,,,,,,,,,,,,,,,,,
S,-0.5,1730147727883915264,,,,,,,,,,,,,,0.70052826,-0.67732215,-0.17875986,0.13616066,-55.96961212,0.00187767,0.00236560,0.00910234,0.00797966,0.01164699,0.04864465,0.00580464,-0.67424041,9.66474152,0.03133277,-0.02871615,-0.09240818,0.21284428,0.64552426,-9.75714970,0.18151151,-0.01585388,0.00000000
S,-0.5,1730147727879882496,,-0.06897622,0.98840839,0.00096174,0.01610573,0.05943855,0.00557919,-0.00006886,0.00098872,0.00000008,0.00001732,0.00005914,0.00000609,,,,,,,,,,,,,,,,,,,,,,,
S,-0.5,1730147727880889088,,-0.06936914,0.98851424,0.00225516,0.01431661,0.06175983,0.01030717,-0.00006917,0.00098873,0.00000209,0.00001471,0.00006250,0.00000864,,,,,,,,,,,,,,,,,,,,,,,
S,-0.5,1730147727885916928,,,,,,,,,,,,,,0.70054662,-0.67732000,-0.17871790,0.13613202,-55.96961212,0.00187767,0.00236560,0.00910234,0.00797966,0.01744284,0.05492021,0.00514592,-0.68344617,9.68374062,0.01285897,-0.03804767,-0.07341099,0.19472106,0.64539850,-9.75715160,0.18186209,-0.01585388,0.00000000
S,-0.5,1730147727881894912,,-0.06837268,0.99023849,0.00037687,0.01524240,0.06447048,0.01223117,-0.00006868,0.00098996,0.00000113,0.00001450,0.00006472,0.00001339,,,,,,,,,,,,,,,,,,,,,,,
S,-0.5,1730147727882899712,,-0.06875247,0.99011707,0.00010096,0.01515320,0.06872159,0.01706774,-0.00006837,0.00099069,-0.00000045,0.00001546,0.00006881,0.00001680,,,,,,,,,,,,,,,,,,,,,,,
S,-0.5,1730147727887917056,,,,,,,,,,,,,,0.70056760,-0.67731696,-0.17867170,0.13609980,-55.96961212,0.00187767,0.00236560,0.00910234,0.00797966,0.01628792,0.06011862,0.00549915,-0.67836744,9.69612694,0.02050989,-0.03309369,-0.06102467,0.20277545,0.64527375,-9.75715160,0.18226555,-0.01585388,0.00000000
S,-0.5,1730147727883903744,,-0.06840771,0.99165910,0.00144882,0.01852386,0.07234089,0.01340449,-0.00006859,0.00099134,0.00000112,0.00001788,0.00007304,0.00001561,,,,,,,,,,,,,,,,,,,,,,,
S,-0.5,1730147727884906752,,-0.06832923,0.99111384,0.00066571,0.01713215,0.07308073,0.01557011,-0.00006823,0.00099170,0.00000124,0.00001846,0.00007410,0.00001401,,,,,,,,,,,,,,,,,,,,,,,
S,-0.5,1730147727889918208,,,,,,,,,,,,,,0.70058888,-0.67731559,-0.17861862,0.13606663,-55.96961212,0.00187767,0.00236560,0.00910234,0.00797966,0.01704221,0.06642929,0.01365888,-0.67044157,9.71533012,-0.00438254,-0.02537769,-0.04182720,0.17828961,0.64506388,-9.75715733,0.18267216,-0.01585388,0.00000000
S,-0.5,1730147727885912064,,-0.06771319,0.99240232,-0.00048812,0.02150414,0.07643544,0.01502699,-0.00006780,0.00099199,-0.00000053,0.00002027,0.00007606,0.00001581,,,,,,,,,,,,,,,,,,,,,,,
S,-0.5,1730147727886920704,,-0.06704231,0.99149549,-0.00247654,0.02409098,0.07870544,0.01791500,-0.00006697,0.00099207,-0.00000248,0.00002501,0.00007936,0.00001722,,,,,,,,,,,,,,,,,,,,,,,
S,-0.5,1730147727891921920,,,,,,,,,,,,,,0.70061213,-0.67731422,-0.17855941,0.13603175,-55.96961212,0.00187767,0.00236560,0.00910234,0.00797966,0.02003601,0.07171562,0.01086806,-0.66914582,9.72529221,0.01213061,-0.02434647,-0.03187561,0.19525422,0.64479935,-9.75716782,0.18312360,-0.01585388,0.00000000
S,-0.5,1730147727887928576,,-0.06627455,0.99005193,-0.00438817,0.02241592,0.07986307,0.01317413,-0.00006620,0.00099003,-0.00000467,0.00002354,0.00008038,0.00001495,,,,,,,,,,,,,,,,,,,,,,,
S,-0.5,1730147727888935680,,-0.06516762,0.99026072,-0.00621284,0.02258295,0.07914779,0.01409730,-0.00006512,0.00098976,-0.00000649,0.00002202,0.00007965,0.00001242,,,,,,,,,,,,,,,,,,,,,,,
S,-0.5,1730147727893923840,,,,,,,,,,,,,,0.70063949,-0.67731023,-0.17849571,0.13599429,-55.96961212,0.00187767,0.00236560,0.00910234,0.00797966,0.02659072,0.07697810,0.01407485,-0.65673184,9.72888660,-0.02434951,-0.01220298,-0.02828884,0.15932463,0.64452887,-9.75717545,0.18367414,-0.01585388,0.00000000
S,-0.5,1730147727889941760,,-0.06342225,0.99255806,-0.00745057,0.02264255,0.07822861,0.01469886,-0.00006339,0.00099221,-0.00000781,0.00002268,0.00007817,0.00001488,,,,,,,,,,,,,,,,,,,,,,,
S,-0.5,1730147727890949120,,-0.06230424,0.99311483,-0.00813907,0.02369264,0.07512222,0.01337145,-0.00006195,0.00099375,-0.00000841,0.00002352,0.00007539,0.00001380,,,,,,,,,,,,,,,,,,,,,,,
S,-0.5,1730147727895926272,,,,,,,,,,,,,,0.70066863,-0.67730522,-0.17843035,0.13595471,-55.96961212,0.00187767,0.00236560,0.00910234,0.00797966,0.02359749,0.07726350,0.00927798,-0.63865381,9.70626163,-0.06364203,0.00561869,-0.05091858,0.12062050,0.64427251,-9.75718021,0.18426253,-0.01585388,0.00000000
S,-0.5,1730147727891955712,,-0.06382214,0.99323827,-0.00866093,0.01783523,0.07608467,0.00986003,-0.00006319,0.00099339,-0.00000878,0.00001923,0.00007492,0.00001008,,,,,,,,,,,,,,,,,,,,,,,
S,-0.5,1730147727892961280,,-0.06222415,0.99348837,-0.01106497,0.01696887,0.07331313,0.01059987,-0.00006300,0.00099348,-0.00001079,0.00001526,0.00007412,0.00000935,,,,,,,,,,,,,,,,,,,,,,,
S,-0.5,1730147727897926912,,,,,,,,,,,,,,0.70069724,-0.67730021,-0.17836766,0.13591516,-55.96961212,0.00187767,0.00236560,0.00910234,0.00797966,0.02509891,0.07301129,0.01066157,-0.60754055,9.74530983,-0.08245456,0.03650987,-0.01187706,0.10238190,0.64405042,-9.75718689,0.18483646,-0.01585388,0.00000000
S,-0.5,1730147727893965824,,-0.06172047,0.99201560,-0.01085612,0.01971049,0.07544092,0.01105448,-0.00006130,0.00099236,-0.00001166,0.00001894,0.00007417,0.00001121,,,,,,,,,,,,,,,,,,,,,,,
S,-0.5,1730147727894969344,,-0.06063327,0.99122888,-0.00985989,0.01990167,0.08219970,0.01296564,-0.00006067,0.00099090,-0.00000997,0.00002074,0.00008165,0.00001276,,,,,,,,,,,,,,,,,,,,,,,
S,-0.5,1730147727899925760,,,,,,,,,,,,,,0.70072317,-0.67729682,-0.17830837,0.13587578,-55.96961212,0.00187767,0.00236560,0.00910234,0.00797966,0.01683990,0.07174031,0.00620522,-0.61779666,9.74273300,-0.10585256,0.02606243,-0.01445580,0.07948527,0.64385909,-9.75718880,0.18533783,-0.01585388,0.00000000
S,-0.5,1730147727895972096,,-0.05977029,0.99129313,-0.00912478,0.01874646,0.08148172,0.01720714,-0.00005958,0.00099103,-0.00000894,0.00001902,0.00008376,0.00001704,,,,,,,,,,,,,,,,,,,,,,,
S,-0.5,1730147727896973824,,-0.06110406,0.99057192,-0.01025112,0.01807739,0.07783855,0.01827464,-0.00006059,0.00099072,-0.00000981,0.00001783,0.00007827,0.00001943,,,,,,,,,,,,,,,,,,,,,,,
S,-0.5,1730147727901926144,,,,,,,,,,,,,,0.70074880,-0.67729479,-0.17824744,0.13583368,-55.96961212,0.00187767,0.00236560,0.00910234,0.00797966,0.02231771,0.07926624,0.00962058,-0.59497273,9.71743965,-0.09781747,0.04870361,-0.03975201,0.08799922,0.64367634,-9.75719166,0.18581669,-0.01585388,0.00000000
S,-0.5,1730147727897978112,,-0.05648842,0.99159878,-0.01244146,0.01583294,0.07610802,0.01404524,-0.00005775,0.00099118,-0.00001240,0.00001603,0.00007526,0.00001515,,,,,,,,,,,,,,,,,,,,,,,
S,-0.5,1730147727898981376,,-0.05612201,0.99159700,-0.01473155,0.01246274,0.07866761,0.01412866,-0.00005472,0.00099192,-0.00001501,0.00001236,0.00007765,0.00001277,,,,,,,,,,,,,,,,,,,,,,,
S,-0.5,1730147727903929856,,,,,,,,,,,,,,0.70077503,-0.67729300,-0.17818147,0.13579394,-55.96961212,0.00187767,0.00236560,0.00910234,0.00797966,0.01940935,0.07588919,0.01628827,-0.59415406,9.71567631,-0.09622632,0.04924071,-0.04152489,0.09009819,0.64339477,-9.75720119,0.18632451,-0.01585388,0.00000000
S,-0.5,1730147727899989248,,-0.05557475,0.99316418,-0.01531775,0.01325541,0.07265188,0.01519351,-0.00005556,0.00099288,-0.00001594,0.00001204,0.00007456,0.00001503,,,,,,,,,,,,,,,,,,,,,,,
S,-0.5,1730147727900996096,,-0.05292513,0.99553829,-0.01633911,0.01231186,0.06949005,0.01389524,-0.00005323,0.00099561,-0.00001634,0.00001274,0.00006815,0.00001447,,,,,,,,,,,,,,,,,,,,,,,
S,-0.5,1730147727905931520,,,,,,,,,,,,,,0.70079803,-0.67729390,-0.17811747,0.13575479,-55.96961212,0.00187767,0.00236560,0.00910234,0.00797966,0.01393871,0.07526896,0.00962474,-0.53661591,9.72745323,-0.14722131,0.10649800,-0.02975845,0.03952603,0.64311391,-9.75721169,0.18674734,-0.01585388,0.00000000
S,-0.5,1730147727902001920,,-0.05055791,0.99218875,-0.01427210,0.01666199,0.06352052,0.01385341,-0.00005014,0.00099355,-0.00001497,0.00001557,0.00006360,0.00001345,,,,,,,,,,,,,,,,,,,,,,,
S,-0.5,1730147727903006976,,-0.05035463,0.99058843,-0.01448799,0.01105291,0.06882547,0.01819945,-0.00004964,0.00098981,-0.00001379,0.00001346,0.00006596,0.00001740,,,,,,,,,,,,,,,,,,,,,,,
S,-0.5,1730147727907934464,,,,,,,,,,,,,,0.70081872,-0.67729545,-0.17805904,0.13571689,-55.96961212,0.00187767,0.00236560,0.00910234,0.00797966,0.01431371,0.06576691,0.01132754,-0.52203155,9.76355839,-0.16024235,0.12085152,0.00633907,0.02687074,0.64288306,-9.75721931,0.18711309,-0.01585388,0.00000000
S,-0.5,1730147727904013568,,-0.04734464,0.99073380,-0.01552659,0.01317325,0.07024010,0.01743249,-0.00004783,0.00099020,-0.00001541,0.00001100,0.00007167,0.00001896,,,,,,,,,,,,,,,,,,,,,,,
S,-0.5,1730147727905019136,,-0.04537130,0.99321407,-0.01444918,0.01021990,0.07330044,0.02106458,-0.00004477,0.00099281,-0.00001498,0.00001143,0.00007319,0.00002016,,,,,,,,,,,,,,,,,,,,,,,
S,-0.5,1730147727909935360,,,,,,,,,,,,,,0.70083845,-0.67729622,-0.17800306,0.13568465,-55.71066666,0.00187767,0.00236560,0.00910234,0.00797966,0.01503482,0.06357870,0.01425398,-0.48677963,9.70674896,-0.13524018,0.15582973,-0.05048180,0.05224271,0.64260936,-9.75723076,0.18748289,0.24309158,0.00000000
S,-0.5,1730147727906023680,,-0.04478785,0.99288124,-0.01406031,0.01408891,0.07322386,0.02058772,-0.00004427,0.00099373,-0.00001379,0.00001245,0.00007421,0.00002183,,,,,,,,,,,,,,,,,,,,,,,
S,-0.5,1730147727907027200,,-0.04694073,0.98999232,-0.01504929,0.01014609,0.07144505,0.02048807,-0.00004636,0.00099041,-0.00001475,0.00001209,0.00007174,0.00002035,,,,,,,,,,,,,,,,,,,,,,,
S,-0.5,1730147727911934464,,,,,,,,,,,,,,0.70085776,-0.67729831,-0.17794347,0.13565260,-55.71066666,0.00187767,0.00236560,0.00910234,0.00797966,0.01300952,0.07081195,0.01701801,-0.43905973,9.73613644,-0.14686036,0.20321912,-0.02110958,0.04098189,0.64227885,-9.75724602,0.18784225,0.24309158,0.00000000
S,-0.5,1730147727908029952,,-0.04655330,0.99150300,-0.01698490,0.01050024,0.06857285,0.02573928,-0.00004731,0.00099031,-0.00001695,0.00000918,0.00006853,0.00002475,,,,,,,,,,,,,,,,,,,,,,,
S,-0.5,1730147727909031680,,-0.04810441,0.99072325,-0.01639978,0.00510395,0.07000092,0.03627986,-0.00004770,0.00099135,-0.00001712,0.00000620,0.00006883,0.00003604,,,,,,,,,,,,,,,,,,,,,,,
S,-0.5,1730147727913934592,,,,,,,,,,,,,,0.70087695,-0.67730153,-0.17788094,0.13561951,-55.71066666,0.00187767,0.00236560,0.00910234,0.00797966,0.01367210,0.06936111,0.01721186,-0.45467520,9.71261692,-0.14460665,0.18724310,-0.04464531,0.04358622,0.64191830,-9.75726223,0.18819287,0.24309158,0.00000000
S,-0.5,1730147727910035712,,-0.04772566,0.99375886,-0.01716575,0.00348313,0.07081953,0.04070667,-0.00004829,0.00099296,-0.00001684,0.00000206,0.00007113,0.00004326,,,,,,,,,,,,,,,,,,,,,,,
S,-0.5,1730147727911039232,,-0.04670454,0.99524927,-0.01944921,0.00042067,0.06878527,0.03949034,-0.00004677,0.00099594,-0.00001928,0.00000046,0.00006942,0.00004112,,,,,,,,,,,,,,,,,,,,,,,
S,-0.5,1730147727915939328,,,,,,,,,,,,,,0.70089287,-0.67730767,-0.17781493,0.13559298,-55.71066666,0.00187767,0.00236560,0.00910234,0.00797966,0.00777529,0.06644443,0.03289374,-0.46776098,9.72178173,-0.16790918,0.17364275,-0.03550911,0.02057937,0.64140373,-9.75729084,0.18848854,0.24309158,0.00000000
S,-0.5,1730147727912048128,,-0.04867151,0.99602342,-0.02015974,0.00039358,0.06736549,0.04105175,-0.00004799,0.00099636,-0.00002076,-0.00000058,0.00006698,0.00004038,,,,,,,,,,,,,,,,,,,,,,,
S,-0.5,1730147727913056000,,-0.05234370,0.99502045,-0.01988526,-0.00055919,0.06893847,0.04028277,-0.00005230,0.00099545,-0.00002016,-0.00000039,0.00006820,0.00004092,,,,,,,,,,,,,,,,,,,,,,,
S,-0.5,1730147727917942272,,,,,,,,,,,,,,0.70090324,-0.67731959,-0.17774349,0.13557349,-55.71066666,0.00187767,0.00236560,0.00910234,0.00797966,0.00203926,0.06703269,0.03797791,-0.45865417,9.76688194,-0.18905272,0.18203294,0.00954819,-0.00038318,0.64068711,-9.75733376,0.18866953,0.24309158,0.00000000
S,-0.5,1730147727914062848,,-0.05542511,0.99483776,-0.02116060,0.00096550,0.06701405,0.03931745,-0.00005603,0.00099455,-0.00002084,0.00000039,0.00006786,0.00003925,,,,,,,,,,,,,,,,,,,,,,,
S,-0.5,1730147727915068928,,-0.05371932,0.99476105,-0.02519356,-0.00232489,0.06776159,0.04384763,-0.00005501,0.00099472,-0.00002487,-0.00000124,0.00006701,0.00004272,,,,,,,,,,,,,,,,,,,,,,,
S,-0.5,1730147727919943424,,,,,,,,,,,,,,0.70091099,-0.67733419,-0.17767106,0.13555534,-55.71066666,0.00187767,0.00236560,0.00910234,0.00797966,0.00118338,0.06581800,0.03777697,-0.51291293,9.76202106,-0.19771475,0.12700969,0.00463963,-0.00892900,0.63992262,-9.75738144,0.18878575,0.24309158,0.00000000
S,-0.5,1730147727916073984,,-0.05547497,0.99363405,-0.02794291,-0.00293344,0.06980708,0.04471804,-0.00005461,0.00099381,-0.00002873,-0.00000387,0.00006967,0.00004600,,,,,,,,,,,,,,,,,,,,,,,
S,-0.5,1730147727917078016,,-0.05768966,0.99485022,-0.03136396,-0.00250879,0.06809771,0.05059079,-0.00005785,0.00099427,-0.00003162,-0.00000278,0.00006906,0.00004980,,,,,,,,,,,,,,,,,,,,,,,
S,-0.5,1730147727921942784,,,,,,,,,,,,,,0.70091784,-0.67734939,-0.17759904,0.13553840,-55.71066666,0.00187767,0.00236560,0.00910234,0.00797966,0.00033639,0.06463046,0.03957475,-0.53946209,9.75483894,-0.24385840,0.09968114,-0.00259209,-0.05497454,0.63914323,-9.75743103,0.18888386,0.24309158,0.00000000
S,-0.5,1730147727918081024,,-0.05974521,0.99648124,-0.03187388,-0.00207139,0.06917285,0.05173770,-0.00006008,0.00099657,-0.00003287,-0.00000202,0.00006843,0.00005340,,,,,,,,,,,,,,,,,,,,,,,
S,-0.5,1730147727919083264,,-0.05952846,0.99461627,-0.03435037,-0.00070467,0.06448452,0.05061597,-0.00006022,0.00099547,-0.00003406,-0.00000081,0.00006568,0.00005118,,,,,,,,,,,,,,,,,,,,,,,
S,-0.5,1730147727923940352,,,,,,,,,,,,,,0.70092338,-0.67736626,-0.17752388,0.13552408,-55.71066666,0.00187767,0.00236560,0.00910234,0.00797966,-0.00120153,0.06667665,0.04665829,-0.56727374,9.75046158,-0.31006274,0.07100338,-0.00702477,-0.12110281,0.63827711,-9.75748634,0.18895993,0.24309158,0.00000000
S,-0.5,1730147727920084480,,-0.05695940,0.99626577,-0.03575372,-0.00448838,0.06017013,0.05336036,-0.00005736,0.00099537,-0.00003629,-0.00000337,0.00005946,0.00005250,,,,,,,,,,,,,,,,,,,,,,,
S,-0.5,1730147727921084672,,-0.05854568,0.99731284,-0.03424090,-0.00239516,0.06146138,0.05467505,-0.00005744,0.00099765,-0.00003496,-0.00000398,0.00005985,0.00005531,,,,,,,,,,,,,,,,,,,,,,,
S,-0.5,1730147727925940224,,,,,,,,,,,,,,0.70092833,-0.67738360,-0.17744629,0.13551322,-55.71066666,0.00187767,0.00236560,0.00910234,0.00797966,0.00076433,0.06329583,0.04804231,-0.59057945,9.76226807,-0.33404207,0.04674888,0.00472164,-0.14500409,0.63732833,-9.75754642,0.18903798,0.24309158,0.00000000
S,-0.5,1730147727922088448,,-0.06181816,0.99835676,-0.03497089,0.00002840,0.06127830,0.05591458,-0.00006173,0.00099850,-0.00003436,0.00000025,0.00006172,0.00005611,,,,,,,,,,,,,,,,,,,,,,,
S,-0.5,1730147727923091200,,-0.06341202,1.00149894,-0.03561143,-0.00009346,0.06663784,0.05617280,-0.00006416,0.00100126,-0.00003573,0.00000070,0.00006561,0.00005652,,,,,,,,,,,,,,,,,,,,,,,
S,-0.5,1730147727927938048,,,,,,,,,,,,,,0.70093173,-0.67740124,-0.17737013,0.13550729,-55.71066666,0.00187767,0.00236560,0.00910234,0.00797966,-0.00240176,0.05747071,0.05216722,-0.56328893,9.78358173,-0.34286422,0.07303882,0.02597046,-0.15376450,0.63632774,-9.75761127,0.18909971,0.24309158,0.00000000
S,-0.5,1730147727924098816,,-0.06421457,1.00264931,-0.03683517,0.00220760,0.05968199,0.05737851,-0.00006458,0.00100344,-0.00003682,0.00000175,0.00006265,0.00005724,,,,,,,,,,,,,,,,,,,,,,,
S,-0.5,1730147727925105408,,-0.06471745,1.00304484,-0.03700897,0.00610298,0.05944917,0.05801200,-0.00006488,0.00100334,-0.00003737,0.00000613,0.00005728,0.00005828,,,,,,,,,,,,,,,,,,,,,,,
S,-0.5,1730147727929939968,,,,,,,,,,,,,,0.70093524,-0.67741883,-0.17729209,0.13550338,-55.71066666,0.00187767,0.00236560,0.00910234,0.00797966,0.00227820,0.06322304,0.05337790,-0.62923443,9.81900978,-0.35036668,0.00604081,0.06133175,-0.16119124,0.63527524,-9.75767803,0.18917544,0.24309158,0.00000000
S,-0.5,1730147727926111232,,-0.06501766,1.00319946,-0.03762609,0.00440907,0.05569066,0.05694939,-0.00006512,0.00100330,-0.00003757,0.00000596,0.00005630,0.00005734,,,,,,,,,,,,,,,,,,,,,,,
S,-0.5,1730147727927116032,,-0.06504670,1.00602603,-0.03865266,0.00521353,0.05659392,0.05637664,-0.00006514,0.00100556,-0.00003866,0.00000453,0.00005523,0.00005614,,,,,,,,,,,,,,,,,,,,,,,
S,-0.5,1730147727931939840,,,,,,,,,,,,,,0.70094174,-0.67743295,-0.17721327,0.13550229,-55.71066666,0.00187767,0.00236560,0.00910234,0.00797966,0.00770581,0.05489463,0.05513814,-0.63626987,9.83939552,-0.36644763,-0.00207585,0.08164978,-0.17709979,0.63419402,-9.75774574,0.18934783,0.24309158,0.00000000
S,-0.5,1730147727928120064,,-0.06540571,1.01099074,-0.04072862,0.00698528,0.05782923,0.05917137,-0.00006535,0.00101099,-0.00004068,0.00000692,0.00005789,0.00005848,,,,,,,,,,,,,,,,,,,,,,,
S,-0.5,1730147727929123072,,-0.06596854,1.01201069,-0.04093575,0.01019931,0.05697729,0.05739537,-0.00006598,0.00101341,-0.00004156,0.00001018,0.00005753,0.00005861,,,,,,,,,,,,,,,,,,,,,,,
S,-0.5,1730147727933938176,,,,,,,,,,,,,,0.70094866,-0.67744499,-0.17713794,0.13550492,-55.71066666,0.00187767,0.00236560,0.00910234,0.00797966,0.00610627,0.05285069,0.05299994,-0.63877666,9.86119175,-0.37914911,-0.00565815,0.10338020,-0.18959777,0.63311851,-9.75781155,0.18955134,0.24309158,0.00000000
S,-0.5,1730147727930125568,,-0.06642529,1.01362276,-0.03973028,0.01379701,0.05606323,0.05425139,-0.00006652,0.00101365,-0.00004002,0.00001417,0.00005596,0.00005426,,,,,,,,,,,,,,,,,,,,,,,
S,-0.5,1730147727931127040,,-0.06782949,1.01445186,-0.03781975,0.01600088,0.05500067,0.05343139,-0.00006772,0.00101481,-0.00003778,0.00001675,0.00005490,0.00005258,,,,,,,,,,,,,,,,,,,,,,,
S,-0.5,1730147727935934720,,,,,,,,,,,,,,0.70095688,-0.67745560,-0.17706212,0.13550791,-55.71066666,0.00187767,0.00236560,0.00910234,0.00797966,0.01175742,0.05514257,0.05546509,-0.64704829,9.93811512,-0.40755641,-0.01500869,0.18023968,-0.21776365,0.63203961,-9.75787544,0.18979277,0.24309158,0.00000000
S,-0.5,1730147727932127744,,-0.06952523,1.01763022,-0.03922550,0.01745993,0.05867418,0.05165731,-0.00006966,0.00101732,-0.00003836,0.00001790,0.00005767,0.00005172,,,,,,,,,,,,,,,,,,,,,,,
S,-0.5,1730147727933127424,,-0.06984555,1.01869321,-0.03815004,0.02277245,0.06212155,0.04982312,-0.00007033,0.00101951,-0.00003879,0.00002227,0.00006266,0.00004959,,,,,,,,,,,,,,,,,,,,,,,
S,-0.5,1730147727937934336,,,,,,,,,,,,,,0.70096952,-0.67746162,-0.17698681,0.13551088,-55.71066666,0.00187767,0.00236560,0.00910234,0.00797966,0.01832373,0.05252004,0.04943706,-0.66410518,9.95193005,-0.37052825,-0.03310961,0.19399452,-0.18037325,0.63099557,-9.75793552,0.19015500,0.24309158,0.00000000
S,-0.5,1730147727934130944,,-0.07154477,1.01823378,-0.03754376,0.02505902,0.05956107,0.04738360,-0.00007134,0.00101866,-0.00003731,0.00002633,0.00006112,0.00004724,,,,,,,,,,,,,,,,,,,,,,,
S,-0.5,1730147727935133440,,-0.06990276,1.02074814,-0.03839497,0.02856061,0.06424312,0.04563239,-0.00007074,0.00102015,-0.00003805,0.00002865,0.00006258,0.00004517,,,,,,,,,,,,,,,,,,,,,,,
S,-0.5,1730147727939932160,,,,,,,,,,,,,,0.70098728,-0.67746300,-0.17691194,0.13551001,-55.71066666,0.00187767,0.00236560,0.00910234,0.00797966,0.02384971,0.06028179,0.04644913,-0.68967521,9.99799442,-0.38043228,-0.05963713,0.24000549,-0.18979478,0.63003808,-9.75798893,0.19063750,0.24309158,0.00000000
S,-0.5,1730147727936135168,,-0.07126164,1.02393091,-0.03901683,0.02735862,0.06436020,0.04372773,-0.00007049,0.00102415,-0.00003917,0.00002869,0.00006583,0.00004352,,,,,,,,,,,,,,,,,,,,,,,
S,-0.5,1730147727937136128,,-0.07708570,1.02573514,-0.03549175,0.03441687,0.06493695,0.04436019,-0.00007646,0.00102642,-0.00003633,0.00003275,0.00006487,0.00004364,,,,,,,,,,,,,,,,,,,,,,,
S,-0.5,1730147727941933824,,,,,,,,,,,,,,0.70101029,-0.67746001,-0.17683607,0.13550501,-55.71066666,0.00187767,0.00236560,0.00910234,0.00797966,0.03023032,0.06019468,0.04203151,-0.69374353,10.00420475,-0.37311885,-0.06459171,0.24617004,-0.18187694,0.62915182,-9.75803471,0.19124191,0.24309158,0.00000000
S,-0.5,1730147727938141696,,-0.07712542,1.02685547,-0.03516936,0.03814850,0.06542620,0.04134279,-0.00007897,0.00102723,-0.00003411,0.00003972,0.00006552,0.00004209,,,,,,,,,,,,,,,,,,,,,,,
S,-0.5,1730147727939146496,,-0.07582428,1.02796364,-0.03457933,0.03828447,0.06849452,0.03757299,-0.00007607,0.00102812,-0.00003458,0.00003945,0.00006809,0.00003730,,,,,,,,,,,,,,,,,,,,,,,
S,-0.5,1730147727943933952,,,,,,,,,,,,,,0.70103741,-0.67745298,-0.17676075,0.13549809,-55.71066666,0.00187767,0.00236560,0.00910234,0.00797966,0.03432995,0.06248669,0.04049645,-0.74981713,10.06574631,-0.35628018,-0.12149423,0.30767250,-0.16433118,0.62832290,-9.75807381,0.19194899,0.24309158,0.00000000
S,-0.5,1730147727940150272,,-0.07745057,1.02756381,-0.03390509,0.03904966,0.07170118,0.03374790,-0.00007674,0.00102799,-0.00003384,0.00003895,0.00007210,0.00003324,,,,,,,,,,,,,,,,,,,,,,,
S,-0.5,1730147727941153280,,-0.07799096,1.02875876,-0.03503805,0.04018743,0.07132056,0.02858341,-0.00007841,0.00102841,-0.00003462,0.00004022,0.00007241,0.00002830,,,,,,,,,,,,,,,,,,,,,,,
S,-0.5,1730147727945932288,,,,,,,,,,,,,,0.70106918,-0.67744184,-0.17668542,0.13548750,-55.71066666,0.00187767,0.00236560,0.00910234,0.00797966,0.04102564,0.06571003,0.03415494,-0.74602854,10.08240223,-0.33915246,-0.11845881,0.32429695,-0.14638832,0.62756974,-9.75810528,0.19276413,0.24309158,0.00000000
S,-0.5,1730147727942155520,,-0.07803062,1.03061569,-0.03454673,0.03844965,0.07015577,0.02608641,-0.00007820,0.00103066,-0.00003500,0.00003913,0.00007025,0.00002490,,,,,,,,,,,,,,,,,,,,,,,
S,-0.5,1730147727943156992,,-0.07971057,1.03117585,-0.03498873,0.04062425,0.06631555,0.02526004,-0.00007942,0.00103167,-0.00003475,0.00003968,0.00006664,0.00002462,,,,,,,,,,,,,,,,,,,,,,,
S,-0.5,1730147727947928832,,,,,,,,,,,,,,0.70110518,-0.67742723,-0.17661214,0.13546963,-55.71066666,0.00187767,0.00236560,0.00910234,0.00797966,0.04180235,0.07002770,0.02516164,-0.76894796,10.08530045,-0.33948356,-0.14198333,0.32717419,-0.14582670,0.62696463,-9.75812626,0.19365686,0.24309158,0.00000000
S,-0.5,1730147727944157440,,-0.08025457,1.03066671,-0.03661776,0.04242582,0.07407988,0.01917931,-0.00008069,0.00103094,-0.00003646,0.00004279,0.00007145,0.00002002,,,,,,,,,,,,,,,,,,,,,,,
S,-0.5,1730147727945156864,,-0.08095182,1.03043854,-0.03712101,0.04349965,0.07740017,0.01795707,-0.00008100,0.00103032,-0.00003755,0.00004388,0.00007927,0.00001624,,,,,,,,,,,,,,,,,,,,,,,
S,-0.5,1730147727949928960,,,,,,,,,,,,,,0.70114201,-0.67741132,-0.17654364,0.13544783,-56.05945206,0.00187767,0.00236560,0.00910234,0.00797966,0.04125410,0.06425977,0.02147282,-0.77882451,10.11717892,-0.34080118,-0.15234095,0.35903931,-0.14624950,0.62648356,-9.75813961,0.19455168,-0.10569382,0.00071812
S,-0.5,1730147727946160384,,-0.08121394,1.02687728,-0.03706092,0.04677049,0.07646735,0.01461288,-0.00008139,0.00102745,-0.00003723,0.00004652,0.00007769,0.00001483,,,,,,,,,,,,,,,,,,,,,,,
S,-0.5,1730147727947163392,,-0.08396108,1.02927232,-0.03543493,0.04759185,0.07772132,0.00614425,-0.00008355,0.00102770,-0.00003571,0.00004848,0.00007720,0.00000662,,,,,,,,,,,,,,,,,,,,,,,
S,-0.5,1730147727951927296,,,,,,,,,,,,,,0.70118147,-0.67739356,-0.17647657,0.13541980,-56.05945206,0.00187767,0.00236560,0.00910234,0.00797966,0.04545606,0.07688563,0.01310107,-0.79432493,10.10396862,-0.36822250,-0.16820675,0.34582424,-0.17273700,0.62611818,-9.75814438,0.19548550,-0.10569382,0.00071812
S,-0.5,1730147727948165376,,-0.08533496,1.03078961,-0.03539651,0.04078111,0.07915720,0.00172745,-0.00008596,0.00103128,-0.00003489,0.00004228,0.00007930,-0.00000017,,,,,,,,,,,,,,,,,,,,,,,
S,-0.5,1730147727949166848,,-0.08485392,1.03209352,-0.03366177,0.04138361,0.08104265,0.00000702,-0.00008538,0.00103234,-0.00003396,0.00003911,0.00008116,-0.00000109,,,,,,,,,,,,,,,,,,,,,,,
S,-0.5,1730147727953928960,,,,,,,,,,,,,,0.70122612,-0.67737180,-0.17641130,0.13538267,-56.05945206,0.00187767,0.00236560,0.00910234,0.00797966,0.05006180,0.07481385,0.00347588,-0.81930727,10.07832813,-0.35020897,-0.19338042,0.32019138,-0.15369551,0.62592685,-9.75813675,0.19651346,-0.10569382,0.00071812
S,-0.5,1730147727950172928,,-0.08537267,1.03308070,-0.03257591,0.04544146,0.08359010,-0.00082848,-0.00008513,0.00103332,-0.00003222,0.00004490,0.00008373,-0.00000122,,,,,,,,,,,,,,,,,,,,,,,
S,-0.5,1730147727951177984,,-0.08329785,1.03170574,-0.03261433,0.04831799,0.08443508,-0.00099236,-0.00008384,0.00103227,-0.00003226,0.00004909,0.00008509,-0.00000123,,,,,,,,,,,,,,,,,,,,,,,
S,-0.5,1730147727955929344,,,,,,,,,,,,,,0.70127046,-0.67735034,-0.17635156,0.13533840,-56.05945206,0.00187767,0.00236560,0.00910234,0.00797966,0.04068431,0.07877439,-0.00422881,-0.83727902,10.12379360,-0.33307764,-0.21137536,0.36567497,-0.13558206,0.62590367,-9.75811863,0.19749558,-0.10569382,0.00144961
S,-0.5,1730147727952182016,,-0.08178658,1.03032541,-0.03341784,0.04997927,0.08478934,-0.00586738,-0.00008140,0.00103014,-0.00003328,0.00005059,0.00008499,-0.00000503,,,,,,,,,,,,,,,,,,,,,,,
S,-0.5,1730147727953185280,,-0.08097900,1.02993715,-0.03360687,0.04871024,0.08760717,-0.00930044,-0.00008065,0.00102957,-0.00003383,0.00004947,0.00008721,-0.00001023,,,,,,,,,,,,,,,,,,,,,,,
S,-0.5,1730147727957927936,,,,,,,,,,,,,,0.70131624,-0.67732847,-0.17629167,0.13528875,-56.05945206,0.00187767,0.00236560,0.00910234,0.00797966,0.05066511,0.08270969,-0.00437109,-0.82218897,10.12310886,-0.31638306,-0.19623309,0.36501312,-0.11789444,0.62595588,-9.75809574,0.19848862,-0.10569382,0.00217913
S,-0.5,1730147727954187520,,-0.07910909,1.02999222,-0.03199451,0.04450345,0.08854597,-0.01160701,-0.00007919,0.00102986,-0.00003235,0.00004486,0.00008927,-0.00001228,,,,,,,,,,,,,,,,,,,,,,,
S,-0.5,1730147727955189248,,-0.07686693,1.02990675,-0.03118460,0.04394195,0.08986226,-0.01323713,-0.00007668,0.00102994,-0.00003082,0.00004270,0.00008992,-0.00001368,,,,,,,,,,,,,,,,,,,,,,,
S,-0.5,1730147727959925248,,,,,,,,,,,,,,0.70136660,-0.67730254,-0.17623204,0.13523474,-56.05945206,0.00187767,0.00236560,0.00910234,0.00797966,0.05104767,0.08482523,-0.01337097,-0.79085857,10.09661674,-0.33174148,-0.16476309,0.33855343,-0.13215673,0.62609547,-9.75806332,0.19958475,-0.10569382,0.00217913
S,-0.5,1730147727956190464,,-0.07689331,1.02695405,-0.03067558,0.04504011,0.08690571,-0.01698366,-0.00007618,0.00102746,-0.00003051,0.00004466,0.00008786,-0.00001682,,,,,,,,,,,,,,,,,,,,,,,
S,-0.5,1730147727957190656,,-0.07635260,1.02610660,-0.03103275,0.04761494,0.09025735,-0.01998015,-0.00007646,0.00102532,-0.00003081,0.00004750,0.00008871,-0.00002063,,,,,,,,,,,,,,,,,,,,,,,
S,-0.5,1730147727961925120,,,,,,,,,,,,,,0.70141613,-0.67727810,-0.17617537,0.13517419,-56.05945206,0.00187767,0.00236560,0.00910234,0.00797966,0.04428300,0.08753920,-0.01681767,-0.75196612,10.10026073,-0.30222490,-0.12561053,0.34223557,-0.10160136,0.62635559,-9.75802517,0.20062354,-0.10569382,0.00217913
S,-0.5,1730147727958194432,,-0.07361946,1.02519059,-0.03065247,0.04356344,0.08878145,-0.02057308,-0.00007394,0.00102509,-0.00003084,0.00004512,0.00009012,-0.00002142,,,,,,,,,,,,,,,,,,,,,,,
S,-0.5,1730147727959197184,,-0.07223163,1.02672029,-0.03052266,0.04447922,0.08671325,-0.02537966,-0.00007161,0.00102615,-0.00003043,0.00004302,0.00008662,-0.00002470,,,,,,,,,,,,,,,,,,,,,,,
S,-0.5,1730147727963923200,,,,,,,,,,,,,,0.70146579,-0.67725354,-0.17612183,0.13510929,-56.05945206,0.00187767,0.00236560,0.00910234,0.00797966,0.04907475,0.08632456,-0.02377083,-0.74981225,10.05496120,-0.30210447,-0.12309551,0.29698086,-0.10046156,0.62671673,-9.75798035,0.20164292,-0.10569382,0.00217913
S,-0.5,1730147727960198912,,-0.07117522,1.02496469,-0.02791287,0.04661572,0.08839224,-0.02137380,-0.00007093,0.00102577,-0.00002835,0.00004652,0.00008743,-0.00002363,,,,,,,,,,,,,,,,,,,,,,,
S,-0.5,1730147727961199872,,-0.06850044,1.02333105,-0.02780441,0.04575847,0.08959775,-0.02339917,-0.00006865,0.00102307,-0.00002699,0.00004659,0.00008991,-0.00002176,,,,,,,,,,,,,,,,,,,,,,,
S,-0.5,1730147727965925120,,,,,,,,,,,,,,0.70151603,-0.67722768,-0.17607316,0.13504168,-56.05945206,0.00187767,0.00236560,0.00910234,0.00797966,0.04460127,0.08423650,-0.02783762,-0.70229417,10.06310081,-0.29836747,-0.07510817,0.30517101,-0.09570290,0.62718600,-9.75792980,0.20266457,-0.10569382,0.00217913
S,-0.5,1730147727962205440,,-0.06574085,1.02146649,-0.02761308,0.04406171,0.09277582,-0.02515149,-0.00006539,0.00102129,-0.00002761,0.00004410,0.00009258,-0.00002548,,,,,,,,,,,,,,,,,,,,,,,
S,-0.5,1730147727963209984,,-0.06495450,1.01941276,-0.02611609,0.04304476,0.09182229,-0.02738970,-0.00006422,0.00101919,-0.00002633,0.00004269,0.00009301,-0.00002754,,,,,,,,,,,,,,,,,,,,,,,
S,-0.5,1730147727967925248,,,,,,,,,,,,,,0.70156610,-0.67720211,-0.17602451,0.13497320,-56.05945206,0.00187767,0.00236560,0.00910234,0.00797966,0.04817241,0.08753041,-0.02489860,-0.67322642,10.03287983,-0.26471519,-0.04556096,0.27500153,-0.06103823,0.62766546,-9.75787830,0.20367697,-0.10569382,0.00217913
S,-0.5,1730147727964213760,,-0.06333354,1.01796973,-0.02607774,0.04142507,0.08777254,-0.02492773,-0.00006338,0.00101758,-0.00002561,0.00004140,0.00008820,-0.00002609,,,,,,,,,,,,,,,,,,,,,,,
S,-0.5,1730147727965216512,,-0.06207245,1.01735377,-0.02256581,0.04328696,0.08907268,-0.02029627,-0.00006179,0.00101701,-0.00002319,0.00004243,0.00008755,-0.00002035,,,,,,,,,,,,,,,,,,,,,,,
S,-0.5,1730147727969923328,,,,,,,,,,,,,,0.70161682,-0.67717683,-0.17597459,0.13490151,-56.05945206,0.00187767,0.00236560,0.00910234,0.00797966,0.04426752,0.09062441,-0.03068334,-0.62977457,9.99486446,-0.25818047,-0.00160325,0.23703957,-0.05348974,0.62817132,-9.75782490,0.20469072,-0.10569382,0.00217913
S,-0.5,1730147727966218496,,-0.06148924,1.01863539,-0.02244382,0.04290617,0.08962471,-0.02256857,-0.00006119,0.00101821,-0.00002135,0.00004357,0.00008994,-0.00002068,,,,,,,,,,,,,,,,,,,,,,,
S,-0.5,1730147727967219456,,-0.06130078,1.01744771,-0.02273076,0.04005524,0.08774033,-0.02263975,-0.00006115,0.00101807,-0.00002264,0.00004045,0.00008826,-0.00002335,,,,,,,,,,,,,,,,,,,,,,,
S,-0.5,1730147727971920128,,,,,,,,,,,,,,0.70166582,-0.67715293,-0.17592531,0.13483074,-56.05945206,0.00187767,0.00236560,0.00910234,0.00797966,0.04401124,0.08516461,-0.02349663,-0.60590500,9.97342587,-0.22743373,0.02275908,0.21565342,-0.02177154,0.62866408,-9.75777245,0.20566219,-0.10569382,0.00217913
S,-0.5,1730147727968219904,,-0.05960697,1.01775587,-0.02142941,0.04318792,0.09034698,-0.02331674,-0.00005985,0.00101732,-0.00002176,0.00004171,0.00008927,-0.00002322,,,,,,,,,,,,,,,,,,,,,,,
S,-0.5,1730147727969219328,,-0.05685931,1.01528347,-0.02138657,0.03521638,0.09066255,-0.02649847,-0.00005682,0.00101583,-0.00002098,0.00003766,0.00009143,-0.00002614,,,,,,,,,,,,,,,,,,,,,,,
S,-0.5,1730147727973920000,,,,,,,,,,,,,,0.70171338,-0.67712986,-0.17587644,0.13476287,-56.05945206,0.00187767,0.00236560,0.00910234,0.00797966,0.04203009,0.08587569,-0.02649263,-0.59967291,9.98387051,-0.22201787,0.02944380,0.22614765,-0.01540792,0.62911671,-9.75772285,0.20660995,-0.10569382,0.00217913
S,-0.5,1730147727970222848,,-0.05483107,1.01207888,-0.02031682,0.03365368,0.08915805,-0.02448265,-0.00005432,0.00101187,-0.00002050,0.00003140,0.00008953,-0.00002586,,,,,,,,,,,,,,,,,,,,,,,
S,-0.5,1730147727971225344,,-0.05354388,1.01174378,-0.02035174,0.03143786,0.08569351,-0.02411388,-0.00005313,0.00101078,-0.00002000,0.00003134,0.00008584,-0.00002354,,,,,,,,,,,,,,,,,,,,,,,
S,-0.5,1730147727975918080,,,,,,,,,,,,,,0.70176005,-0.67710823,-0.17582847,0.13469122,-56.05945206,0.00187767,0.00236560,0.00910234,0.00797966,0.03923998,0.08905219,-0.02927837,-0.55721015,9.96189690,-0.20574169,0.07241464,0.20422459,0.00177187,0.62962478,-9.75767231,0.20751356,-0.10569382,0.00217913
S,-0.5,1730147727972227072,,-0.05829598,1.00984716,-0.02054176,0.03008104,0.07887307,-0.02610738,-0.00005702,0.00101009,-0.00002052,0.00002962,0.00007901,-0.00002563,,,,,,,,,,,,,,,,,,,,,,,
S,-0.5,1730147727973228032,,-0.05931708,1.00703859,-0.02023599,0.02441705,0.08197967,-0.02986810,-0.00006064,0.00100695,-0.00002035,0.00002501,0.00007924,-0.00002982,,,,,,,,,,,,,,,,,,,,,,,
S,-0.5,1730147727977914368,,,,,,,,,,,,,,0.70180339,-0.67708957,-0.17578201,0.13461952,-56.05945206,0.00187767,0.00236560,0.00910234,0.00797966,0.03292114,0.08346133,-0.02668177,-0.52104646,9.91241074,-0.19618079,0.10908836,0.15478992,0.01214468,0.63013482,-9.75762081,0.20832548,-0.10569382,0.00217913
S,-0.5,1730147727974228480,,-0.05761530,1.00630915,-0.01968793,0.01867955,0.08135668,-0.02986200,-0.00005825,0.00100555,-0.00001969,0.00001792,0.00008246,-0.00003106,,,,,,,,,,,,,,,,,,,,,,,
S,-0.5,1730147727975227904,,-0.05599999,1.00713241,-0.01852802,0.01960249,0.07914257,-0.02905886,-0.00005575,0.00100675,-0.00001856,0.00001761,0.00007935,-0.00002920,,,,,,,,,,,,,,,,,,,,,,,
S,-0.5,1730147727979920128,,,,,,,,,,,,,,0.70184165,-0.67707425,-0.17574194,0.13454954,-56.05945206,0.00187767,0.00236560,0.00910234,0.00797966,0.02659232,0.07686149,-0.03296186,-0.59471989,9.87475872,-0.19958135,0.03596348,0.11718750,0.00942633,0.63068336,-9.75757122,0.20900768,-0.10569382,0.00217913
S,-0.5,1730147727976237824,,-0.05527981,1.00482082,-0.02029532,0.01687597,0.07524502,-0.02875024,-0.00005490,0.00100550,-0.00001960,0.00001767,0.00007525,-0.00002855,,,,,,,,,,,,,,,,,,,,,,,
S,-0.5,1730147727977246720,,-0.05695496,1.00226164,-0.02059472,0.01532233,0.07338029,-0.02553246,-0.00005642,0.00100199,-0.00002110,0.00001474,0.00007248,-0.00002602,,,,,,,,,,,,,,,,,,,,,,,
S,-0.5,1730147727981924864,,,,,,,,,,,,,,0.70187503,-0.67706281,-0.17570698,0.13447857,-56.05945206,0.00187767,0.00236560,0.00910234,0.00797966,0.01918660,0.07696380,-0.03234537,-0.54673666,9.87285042,-0.18205345,0.08455151,0.11533070,0.02749723,0.63128817,-9.75751972,0.20955068,-0.10569382,0.00217913
S,-0.5,1730147727978254848,,-0.05564547,1.00116861,-0.02183502,0.01221076,0.07622887,-0.02222422,-0.00005642,0.00100055,-0.00002170,0.00001228,0.00007512,-0.00002180,,,,,,,,,,,,,,,,,,,,,,,
S,-0.5,1730147727979261952,,-0.05508248,1.00177372,-0.02313835,0.00489441,0.07597610,-0.02639098,-0.00005477,0.00100132,-0.00002330,0.00000523,0.00007693,-0.00002458,,,,,,,,,,,,,,,,,,,,,,,
S,-0.5,1730147727983927296,,,,,,,,,,,,,,0.70190412,-0.67705482,-0.17567381,0.13441032,-56.05945206,0.00187767,0.00236560,0.00910234,0.00797966,0.01631484,0.07009573,-0.02916138,-0.55330271,9.82617378,-0.20694588,0.07855487,0.06869984,0.00304455,0.63185757,-9.75747395,0.20999043,-0.10569382,0.00217913
S,-0.5,1730147727980268032,,-0.05815234,1.00160801,-0.02373596,0.00395308,0.06997423,-0.02583428,-0.00005742,0.00100183,-0.00002404,0.00000180,0.00007098,-0.00002726,,,,,,,,,,,,,,,,,,,,,,,
S,-0.5,1730147727981273088,,-0.05651965,0.99981087,-0.02333386,0.00239348,0.06702001,-0.02651553,-0.00005779,0.00100008,-0.00002360,0.00000238,0.00006565,-0.00002621,,,,,,,,,,,,,,,,,,,,,,,
S,-0.5,1730147727985927936,,,,,,,,,,,,,,0.70192850,-0.67705142,-0.17564075,0.13434343,-56.05945206,0.00187767,0.00236560,0.00910234,0.00797966,0.00681135,0.07454602,-0.02772336,-0.53709251,9.81955433,-0.22845359,0.09528971,0.06212139,-0.01814540,0.63238221,-9.75743294,0.21030819,-0.10569382,0.00217913
S,-0.5,1730147727982277376,,-0.05753271,1.00075030,-0.02132259,0.00094142,0.06570268,-0.02849164,-0.00005683,0.00100001,-0.00002156,0.00000071,0.00006500,-0.00002835,,,,,,,,,,,,,,,,,,,,,,,
S,-0.5,1730147727983281152,,-0.05674339,0.99885637,-0.02104169,-0.00370577,0.06061288,-0.02551577,-0.00005721,0.00099950,-0.00002045,-0.00000332,0.00006112,-0.00002669,,,,,,,,,,,,,,,,,,,,,,,
S,-0.5,1730147727987927296,,,,,,,,,,,,,,0.70194811,-0.67705190,-0.17561097,0.13427769,-56.05945206,0.00187767,0.00236560,0.00910234,0.00797966,0.00395530,0.06326356,-0.02935708,-0.56675947,9.80747986,-0.23140918,0.06615078,0.05008411,-0.02090794,0.63291025,-9.75739574,0.21050124,-0.10569382,0.00217913
S,-0.5,1730147727984283904,,-0.05552698,0.99918264,-0.02153739,-0.00626066,0.04895640,-0.02585719,-0.00005550,0.00099852,-0.00002136,-0.00000728,0.00004945,-0.00002485,,,,,,,,,,,,,,,,,,,,,,,
S,-0.5,1730147727985285632,,-0.05662098,1.00098443,-0.02302999,-0.01118625,0.05199935,-0.02856460,-0.00005604,0.00100076,-0.00002292,-0.00001110,0.00004774,-0.00002818,,,,,,,,,,,,,,,,,,,,,,,
S,-0.5,1730147727989928960,,,,,,,,,,,,,,0.70196354,-0.67705411,-0.17558804,0.13421580,-56.05945206,0.00187767,0.00236560,0.00910234,0.00797966,-0.00174553,0.05873559,-0.02982798,-0.56103003,9.80174255,-0.20056719,0.07243210,0.04438591,0.01003298,0.63346213,-9.75735664,0.21060017,-0.10569382,0.00217913
S,-0.5,1730147727986291200,,-0.05719261,0.99992102,-0.02289291,-0.01292674,0.05289157,-0.02717291,-0.00005744,0.00100069,-0.00002339,-0.00001418,0.00005370,-0.00002829,,,,,,,,,,,,,,,,,,,,,,,
S,-0.5,1730147727987295744,,-0.05520587,0.99720955,-0.02322756,-0.01342035,0.05191103,-0.02720787,-0.00005575,0.00099736,-0.00002312,-0.00001388,0.00005237,-0.00002676,,,,,,,,,,,,,,,,,,,,,,,
S,-0.5,1730147727991934976,,,,,,,,,,,,,,0.70197296,-0.67705965,-0.17557296,0.13415812,-55.91147995,0.00187767,0.00236560,0.00910234,0.00797966,-0.00952649,0.04535337,-0.03132389,-0.54951864,9.81411266,-0.22473176,0.08451813,0.05679226,-0.01417577,0.63403678,-9.75732040,0.21055599,0.04227829,0.00217913
S,-0.5,1730147727988305664,,-0.05335648,0.99594563,-0.02319571,-0.01428975,0.04586369,-0.02300048,-0.00005306,0.00099531,-0.00002331,-0.00001429,0.00004665,-0.00002378,,,,,,,,,,,,,,,,,,,,,,,
S,-0.5,1730147727989314560,,-0.05684652,0.99249816,-0.02265217,-0.01458823,0.04379968,-0.02568395,-0.00005562,0.00099272,-0.00002274,-0.00001481,0.00004225,-0.00002386,,,,,,,,,,,,,,,,,,,,,,,
S,-0.5,1730147727993939200,,,,,,,,,,,,,,0.70197803,-0.67706835,-0.17556168,0.13410243,-55.91147995,0.00187767,0.00236560,0.00910234,0.00797966,-0.01230658,0.04999044,-0.02990106,-0.54670781,9.78079700,-0.22676060,0.08790606,0.02351093,-0.01635768,0.63461387,-9.75728607,0.21040292,0.04227829,0.00217913
S,-0.5,1730147727990322432,,-0.05605221,0.99339324,-0.02610685,-0.01464573,0.04778850,-0.02336913,-0.00005731,0.00099213,-0.00002531,-0.00001473,0.00004641,-0.00002464,,,,,,,,,,,,,,,,,,,,,,,
S,-0.5,1730147727991329280,,-0.05483433,0.99223024,-0.02604250,-0.01527521,0.04402553,-0.02647965,-0.00005480,0.00099273,-0.00002715,-0.00001518,0.00004598,-0.00002518,,,,,,,,,,,,,,,,,,,,,,,
S,-0.5,1730147727995941632,,,,,,,,,,,,,,0.70198107,-0.67707837,-0.17555112,0.13404980,-55.91147995,0.00187767,0.00236560,0.00910234,0.00797966,-0.01323265,0.03986701,-0.02699966,-0.54548264,9.73527908,-0.22301020,0.08966738,-0.02197647,-0.01279986,0.63515002,-9.75725555,0.21021034,0.04227829,0.00217913
S,-0.5,1730147727992335360,,-0.05151804,0.99249351,-0.02629555,-0.01244935,0.03675455,-0.02363945,-0.00005173,0.00099208,-0.00002623,-0.00001316,0.00003688,-0.00002515,,,,,,,,,,,,,,,,,,,,,,,
S,-0.5,1730147727993340416,,-0.05280668,0.99309266,-0.02941620,-0.01140701,0.03547738,-0.02065448,-0.00005152,0.00099307,-0.00002893,-0.00001070,0.00003340,-0.00002029,,,,,,,,,,,,,,,,,,,,,,,
S,-0.5,1730147727997942528,,,,,,,,,,,,,,0.70198303,-0.67708850,-0.17554235,0.13399978,-55.91147995,0.00187767,0.00236560,0.00910234,0.00797966,-0.01360105,0.04359617,-0.02832020,-0.53743207,9.73532104,-0.26628801,0.09824026,-0.02190495,-0.05628593,0.63567233,-9.75722599,0.21000208,0.04227829,0.00217913
S,-0.5,1730147727994344704,,-0.05538639,0.99511707,-0.03179833,-0.00811682,0.03302791,-0.02350029,-0.00005533,0.00099494,-0.00003236,-0.00000838,0.00003307,-0.00002203,,,,,,,,,,,,,,,,,,,,,,,
S,-0.5,1730147727995347968,,-0.05636502,0.99399549,-0.03208508,-0.00989483,0.02953405,-0.02273465,-0.00005701,0.00099484,-0.00003279,-0.00000852,0.00002939,-0.00002378,,,,,,,,,,,,,,,,,,,,,,,
S,-0.5,1730147727999941632,,,,,,,,,,,,,,0.70198536,-0.67709690,-0.17553522,0.13395436,-55.91147995,0.00187767,0.00236560,0.00910234,0.00797966,-0.00911879,0.03101226,-0.02343529,-0.50520480,9.73866653,-0.28370586,0.13095725,-0.01853085,-0.07387799,0.63616204,-9.75719738,0.20982787,0.04227829,0.00217913
S,-0.5,1730147727996352768,,-0.05707854,0.99210775,-0.03062404,-0.00914802,0.02493752,-0.02408102,-0.00005726,0.00099209,-0.00003098,-0.00000985,0.00002466,-0.00002359,,,,,,,,,,,,,,,,,,,,,,,
S,-0.5,1730147727997356544,,-0.05886659,0.99072307,-0.03041794,-0.00411035,0.02189581,-0.02266207,-0.00005877,0.00099037,-0.00002999,-0.00000479,0.00002099,-0.00002335,,,,,,,,,,,,,,,,,,,,,,,
S,-0.5,1730147728001940736,,,,,,,,,,,,,,0.70198840,-0.67710203,-0.17553298,0.13391563,-55.91147995,0.00187767,0.00236560,0.00910234,0.00797966,-0.00694640,0.02700641,-0.02692213,-0.55906260,9.75608349,-0.32157192,0.07757860,-0.00108624,-0.11186349,0.63664120,-9.75716972,0.20970842,0.04227829,0.00217913
S,-0.5,1730147727998359552,,-0.05866740,0.99202514,-0.02966165,-0.00422851,0.02230490,-0.02071478,-0.00005927,0.00099135,-0.00002973,-0.00000260,0.00002126,-0.00002062,,,,,,,,,,,,,,,,,,,,,,,
S,-0.5,1730147727999361536,,-0.06097985,0.99246448,-0.03136865,-0.00452309,0.02052423,-0.01963658,-0.00006050,0.00099280,-0.00003082,-0.00000451,0.00002098,-0.00001921,,,,,,,,,,,,,,,,,,,,,,,
S,-0.5,1730147728003941376,,,,,,,,,,,,,,0.70199251,-0.67710394,-0.17553574,0.13388056,-55.91147995,0.00187767,0.00236560,0.00910234,0.00797966,-0.00320984,0.01860259,-0.02649098,-0.57632530,9.71224880,-0.29410854,0.06082743,-0.04488754,-0.08447091,0.63715273,-9.75713634,0.20963763,0.04227829,0.00217913
S,-0.5,1730147728000371200,,-0.06197022,0.99502951,-0.03179297,-0.00568753,0.02094845,-0.01953796,-0.00006253,0.00099470,-0.00003226,-0.00000557,0.00002030,-0.00001921,,,,,,,,,,,,,,,,,,,,,,,
S,-0.5,1730147728001379840,,-0.06290909,0.99609935,-0.03325306,-0.00635364,0.01646939,-0.02310204,-0.00006305,0.00099672,-0.00003312,-0.00000660,0.00001742,-0.00002242,,,,,,,,,,,,,,,,,,,,,,,
S,-0.5,1730147728005945344,,,,,,,,,,,,,,0.70199698,-0.67710429,-0.17553963,0.13385028,-55.91147995,0.00187767,0.00236560,0.00910234,0.00797966,-0.00292908,0.01859524,-0.02235516,-0.59326488,9.73603344,-0.30221748,0.04435670,-0.02107334,-0.09261565,0.63762158,-9.75710678,0.20960183,0.04227829,0.00217913
S,-0.5,1730147728002387712,,-0.06066904,0.99588537,-0.03450447,-0.00373387,0.01488561,-0.01984618,-0.00006137,0.00099626,-0.00003474,-0.00000442,0.00001375,-0.00002157,,,,,,,,,,,,,,,,,,,,,,,
S,-0.5,1730147728003394560,,-0.05974285,0.99451941,-0.03159478,-0.00489033,0.01032718,-0.01899747,-0.00005920,0.00099470,-0.00003252,-0.00000385,0.00001065,-0.00001812,,,,,,,,,,,,,,,,,,,,,,,
S,-0.5,1730147728007947520,,,,,,,,,,,,,,0.70200044,-0.67710513,-0.17554457,0.13382137,-55.91147995,0.00187767,0.00236560,0.00910234,0.00797966,-0.00502519,0.01503548,-0.02556562,-0.61834860,9.77449799,-0.32482308,0.01973349,0.01741982,-0.11527766,0.63808209,-9.75707817,0.20954542,0.04227829,0.00217913
S,-0.5,1730147728004400384,,-0.06280274,0.99691182,-0.03093404,-0.00166547,0.01074669,-0.01940151,-0.00006195,0.00099604,-0.00003013,-0.00000262,0.00000922,-0.00001906,,,,,,,,,,,,,,,,,,,,,,,
S,-0.5,1730147728005405440,,-0.06626365,0.99695230,-0.02775299,-0.00263391,0.00772298,-0.02119496,-0.00006661,0.00099771,-0.00002812,-0.00000143,0.00000841,-0.00002100,,,,,,,,,,,,,,,,,,,,,,,
S,-0.5,1730147728009948160,,,,,,,,,,,,,,0.70200312,-0.67710513,-0.17555274,0.13379641,-55.91147995,0.00187767,0.00236560,0.00910234,0.00797966,-0.00226822,0.00826852,-0.02125783,-0.58053237,9.75467014,-0.31892991,0.05800164,-0.00237846,-0.10944149,0.63853401,-9.75704861,0.20948842,0.04227829,0.00217913
S,-0.5,1730147728006409728,,-0.06739228,0.99824578,-0.02768738,-0.00014696,0.00870307,-0.01977192,-0.00006829,0.00099802,-0.00002669,-0.00000091,0.00000756,-0.00002060,,,,,,,,,,,,,,,,,,,,,,,
S,-0.5,1730147728007412992,,-0.06805316,0.99806440,-0.02831401,0.00288185,0.00724248,-0.01718985,-0.00006829,0.00099851,-0.00002818,0.00000312,0.00000782,-0.00001721,,,,,,,,,,,,,,,,,,,,,,,
S,-0.5,1730147728011947008,,,,,,,,,,,,,,0.70200670,-0.67710286,-0.17556323,0.13377544,-55.91147995,0.00187767,0.00236560,0.00910234,0.00797966,0.00014665,0.00602315,-0.02414025,-0.65321106,9.78415871,-0.27577016,-0.01423705,0.02713776,-0.06629325,0.63897401,-9.75702095,0.20947690,0.04227829,0.00217913
S,-0.5,1730147728008415744,,-0.06706033,0.99580342,-0.02763279,0.00609874,0.00498196,-0.01619552,-0.00006745,0.00099616,-0.00002796,0.00000648,0.00000493,-0.00001555,,,,,,,,,,,,,,,,,,,,,,,
S,-0.5,1730147728009417472,,-0.06705665,0.99594891,-0.02798357,0.00850265,-0.00077421,-0.01590992,-0.00006674,0.00099520,-0.00002770,0.00000909,-0.00000045,-0.00001565,,,,,,,,,,,,,,,,,,,,,,,
S,-0.5,1730147728013944320,,,,,,,,,,,,,,0.70201230,-0.67709804,-0.17557395,0.13375637,-55.91147995,0.00187767,0.00236560,0.00910234,0.00797966,0.00470126,0.00543708,-0.02034855,-0.66971624,9.79202938,-0.27634755,-0.03031069,0.03503799,-0.06681660,0.63940555,-9.75699139,0.20953095,0.04227829,0.00217913
S,-0.5,1730147728010418176,,-0.06863592,0.99845111,-0.02616129,0.00958714,0.00201396,-0.02148859,-0.00006835,0.00099804,-0.00002660,0.00001016,-0.00000032,-0.00002038,,,,,,,,,,,,,,,,,,,,,,,
S,-0.5,1730147728011418624,,-0.06753323,0.99941534,-0.02464566,0.01336140,0.00279336,-0.01852971,-0.00006824,0.00100004,-0.00002434,0.00001302,0.00000354,-0.00002084,,,,,,,,,,,,,,,,,,,,,,,
S,-0.5,1730147728015943936,,,,,,,,,,,,,,0.70202035,-0.67708939,-0.17558526,0.13374309,-55.91147995,0.00187767,0.00236560,0.00910234,0.00797966,0.01066794,-0.00283066,-0.01878784,-0.65450865,9.75960541,-0.27167547,-0.01472175,0.00264263,-0.06199299,0.63978690,-9.75696278,0.20968248,0.04227829,0.00217913
S,-0.5,1730147728012421888,,-0.06513935,0.99936819,-0.02320433,0.02045627,0.00139760,-0.02342973,-0.00006522,0.00099968,-0.00002298,0.00002037,0.00000190,-0.00002160,,,,,,,,,,,,,,,,,,,,,,,
S,-0.5,1730147728013424384,,-0.06546277,1.00082755,-0.02252128,0.02386430,0.00167426,-0.02533435,-0.00006464,0.00100055,-0.00002219,0.00002550,0.00000118,-0.00002655,,,,,,,,,,,,,,,,,,,,,,,
S,-0.5,1730147728017948672,,,,,,,,,,,,,,0.70203161,-0.67707664,-0.17559864,0.13373086,-55.91147995,0.00187767,0.00236560,0.00910234,0.00797966,0.01459896,0.00115650,-0.02398558,-0.66916955,9.80700970,-0.23870602,-0.02896482,0.05008030,-0.02877817,0.64020473,-9.75692940,0.20992786,0.04227829,0.00217913
S,-0.5,1730147728014432768,,-0.06538513,1.00031507,-0.02043661,0.02618331,0.00161973,-0.02094277,-0.00006550,0.00100087,-0.00002060,0.00002685,0.00000172,-0.00002235,,,,,,,,,,,,,,,,,,,,,,,
S,-0.5,1730147728015440128,,-0.06639928,1.00067139,-0.02083745,0.02799947,0.00279247,-0.01996624,-0.00006619,0.00100044,-0.00002010,0.00002841,0.00000256,-0.00001875,,,,,,,,,,,,,,,,,,,,,,,
S,-0.5,1730147728019951360,,,,,,,,,,,,,,0.70204937,-0.67705733,-0.17561406,0.13371570,-55.91147995,0.00187767,0.00236560,0.00910234,0.00797966,0.02708156,-0.00120303,-0.02969056,-0.63392568,9.81201839,-0.21758030,0.00680315,0.05513000,-0.00724390,0.64072883,-9.75688839,0.21033640,0.04227829,0.00217913
S,-0.5,1730147728016446464,,-0.06593283,1.00116503,-0.02205233,0.02845718,0.00325425,-0.01942149,-0.00006634,0.00100119,-0.00002196,0.00002895,0.00000354,-0.00001921,,,,,,,,,,,,,,,,,,,,,,,
S,-0.5,1730147728017452032,,-0.06529658,0.99986964,-0.02228798,0.03327260,0.00460414,-0.01937978,-0.00006526,0.00100026,-0.00002263,0.00003254,0.00000451,-0.00001921,,,,,,,,,,,,,,,,,,,,,,,
S,-0.5,1730147728021952512,,,,,,,,,,,,,,0.70207202,-0.67703271,-0.17562807,0.13370295,-55.91147995,0.00187767,0.00236560,0.00910234,0.00797966,0.02998575,0.00017928,-0.02188831,-0.64910215,9.81099987,-0.19712535,-0.00786984,0.05415630,0.01376641,0.64123231,-9.75684357,0.21089175,0.04227829,0.00217913
S,-0.5,1730147728018456576,,-0.06416894,1.00097752,-0.01920151,0.03102566,0.00432212,-0.02025388,-0.00006417,0.00100036,-0.00001984,0.00003297,0.00000480,-0.00002008,,,,,,,,,,,,,,,,,,,,,,,
S,-0.5,1730147728019460096,,-0.06458832,1.00137639,-0.01839201,0.03048763,0.00457261,-0.01814719,-0.00006415,0.00100166,-0.00001756,0.00002987,0.00000444,-0.00001881,,,,,,,,,,,,,,,,,,,,,,,
S,-0.5,1730147728023951360,,,,,,,,,,,,,,0.70209688,-0.67700648,-0.17563795,0.13369226,-55.91147995,0.00187767,0.00236560,0.00910234,0.00797966,0.03412148,0.00212312,-0.02235648,-0.64001834,9.80922222,-0.22194582,0.00164491,0.05242062,-0.01042727,0.64166325,-9.75680161,0.21151856,0.04227829,0.00217913
S,-0.5,1730147728020462848,,-0.06700069,1.00186861,-0.01644810,0.03056145,0.00714784,-0.02180523,-0.00006670,0.00100191,-0.00001654,0.00003038,0.00000676,-0.00002047,,,,,,,,,,,,,,,,,,,,,,,
S,-0.5,1730147728021464576,,-0.06837133,1.00141954,-0.01561560,0.03234071,0.00908876,-0.01907013,-0.00006889,0.00100166,-0.00001515,0.00003204,0.00000956,-0.00002073,,,,,,,,,,,,,,,,,,,,,,,
S,-0.5,1730147728025948672,,,,,,,,,,,,,,0.70212239,-0.67697984,-0.17564709,0.13368106,-55.91147995,0.00187767,0.00236560,0.00910234,0.00797966,0.03144826,0.00205458,-0.02195072,-0.62912685,9.82289600,-0.17216919,0.01296794,0.06613731,0.03999145,0.64209479,-9.75675869,0.21216065,0.04227829,0.00217913
S,-0.5,1730147728022465280,,-0.06803779,1.00633681,-0.01459717,0.03252176,0.01290740,-0.02027657,-0.00006853,0.00100530,-0.00001452,0.00003306,0.00001283,-0.00001919,,,,,,,,,,,,,,,,,,,,,,,
S,-0.5,1730147728023465216,,-0.06716341,1.00446677,-0.01382998,0.02634339,0.00956433,-0.02376667,-0.00006722,0.00100637,-0.00001364,0.00002752,0.00001139,-0.00002352,,,,,,,,,,,,,,,,,,,,,,,
S,-0.5,1730147728027948288,,,,,,,,,,,,,,0.70214826,-0.67695361,-0.17565502,0.13366756,-55.91147995,0.00187767,0.00236560,0.00910234,0.00797966,0.03361904,0.00717309,-0.02387398,-0.67558205,9.82290745,-0.14855358,-0.03304219,0.06619263,0.06424703,0.64253986,-9.75671482,0.21280061,0.04227829,0.00217913
S,-0.5,1730147728024468480,,-0.06835073,1.00636172,-0.01299920,0.03041295,0.01420894,-0.02438389,-0.00006786,0.00100542,-0.00001291,0.00002771,0.00001230,-0.00002538,,,,,,,,,,,,,,,,,,,,,,,
S,-0.5,1730147728025470976,,-0.07320869,1.00395024,-0.01352058,0.03097528,0.00987046,-0.02537655,-0.00007270,0.00100499,-0.00001316,0.00003217,0.00001214,-0.00002539,,,,,,,,,,,,,,,,,,,,,,,
S,-0.5,1730147728029952256,,,,,,,,,,,,,,0.70217431,-0.67692822,-0.17566225,0.13364986,-55.91147995,0.00187767,0.00236560,0.00910234,0.00797966,0.02910165,0.00900452,-0.02665910,-0.65916836,9.86913586,-0.13380897,-0.01613897,0.11246681,0.07961456,0.64302939,-9.75666904,0.21342354,0.04227829,0.00217913
S,-0.5,1730147728026478592,,-0.07474720,1.00351882,-0.01072074,0.03022263,0.01659558,-0.02662836,-0.00007601,0.00100283,-0.00001140,0.00003054,0.00001399,-0.00002672,,,,,,,,,,,,,,,,,,,,,,,
S,-0.5,1730147728027485184,,-0.07642658,1.00458574,-0.00943745,0.03101578,0.01657920,-0.02794257,-0.00007661,0.00100425,-0.00000878,0.00003063,0.00001872,-0.00002810,,,,,,,,,,,,,,,,,,,,,,,
S,-0.5,1730147728031954432,,,,,,,,,,,,,,0.70220089,-0.67690259,-0.17567015,0.13362965,-55.05537033,0.00187767,0.00236560,0.00910234,0.00797966,0.03374659,0.00975439,-0.02853520,-0.71298254,9.85560036,-0.12907296,-0.06941891,0.09897995,0.08497518,0.64356363,-9.75662041,0.21404815,0.89838791,0.00217913
S,-0.5,1730147728028490752,,-0.07691032,1.00369680,-0.00611892,0.03253524,0.01854315,-0.02828529,-0.00007736,0.00100420,-0.00000631,0.00003251,0.00001818,-0.00002864,,,,,,,,,,,,,,,,,,,,,,,
S,-0.5,1730147728029495552,,-0.07711668,1.00628257,-0.00426079,0.03028919,0.02380643,-0.02913119,-0.00007723,0.00100553,-0.00000354,0.00003118,0.00002348,-0.00002909,,,,,,,,,,,,,,,,,,,,,,,
S,-0.5,1730147728033954560,,,,,,,,,,,,,,0.70222950,-0.67687595,-0.17567681,0.13360563,-55.05537033,0.00187767,0.00236560,0.00910234,0.00797966,0.03221020,0.01634010,-0.03124478,-0.75129998,9.84837341,-0.08609679,-0.10715878,0.09180546,0.12861177,0.64414120,-9.75656796,0.21470855,0.89838791,0.00217913
S,-0.5,1730147728030499584,,-0.07600593,1.00556362,-0.00308537,0.03041726,0.02252579,-0.03298050,-0.00007627,0.00100652,-0.00000271,0.00002968,0.00002443,-0.00003255,,,,,,,,,,,,,,,,,,,,,,,
S,-0.5,1730147728031502592,,-0.07487867,1.00697744,-0.00240117,0.03282804,0.03109151,-0.03241290,-0.00007473,0.00100649,-0.00000215,0.00003243,0.00002913,-0.00003374,,,,,,,,,,,,,,,,,,,,,,,
S,-0.5,1730147728035953408,,,,,,,,,,,,,,0.70225900,-0.67685008,-0.17568080,0.13357638,-55.05537033,0.00187767,0.00236560,0.00910234,0.00797966,0.03275904,0.02109254,-0.03222910,-0.75739890,9.86087894,-0.03473509,-0.11264646,0.10436535,0.18063113,0.64475244,-9.75651360,0.21536623,0.89838791,0.00217913
S,-0.5,1730147728032504832,,-0.07652944,1.00505102,0.00055283,0.03014777,0.03759079,-0.02817953,-0.00007587,0.00100585,0.00000023,0.00003140,0.00003914,-0.00002877,,,,,,,,,,,,,,,,,,,,,,,
S,-0.5,1730147728033506048,,-0.07615084,1.00602722,0.00072390,0.03174781,0.03564674,-0.03046750,-0.00007675,0.00100524,0.00000163,0.00003060,0.00003807,-0.00002870,,,,,,,,,,,,,,,,,,,,,,,
S,-0.5,1730147728037950976,,,,,,,,,,,,,,0.70229042,-0.67682374,-0.17568293,0.13354179,-55.05537033,0.00187767,0.00236560,0.00910234,0.00797966,0.03400890,0.02674482,-0.03688383,-0.73285109,9.87031269,-0.02109995,-0.08743483,0.11385822,0.19494855,0.64541626,-9.75645447,0.21604849,0.89838791,0.00217913
S,-0.5,1730147728034507520,,-0.07564665,1.00493634,0.00290589,0.02770488,0.03809032,-0.03345616,-0.00007562,0.00100545,0.00000256,0.00002895,0.00003703,-0.00003364,,,,,,,,,,,,,,,,,,,,,,,
S,-0.5,1730147728035507968,,-0.07781182,1.00336421,0.00324898,0.02836111,0.04005870,-0.03584305,-0.00007726,0.00100330,0.00000388,0.00002695,0.00004048,-0.00003636,,,,,,,,,,,,,,,,,,,,,,,
S,-0.5,1730147728039950592,,,,,,,,,,,,,,0.70232290,-0.67679864,-0.17567985,0.13350235,-55.05537033,0.00187767,0.00236560,0.00910234,0.00797966,0.03218203,0.03568599,-0.03184680,-0.75261217,9.85800362,0.01601604,-0.10653907,0.10160732,0.23275101,0.64607310,-9.75639629,0.21673498,0.89838791,0.00217913
S,-0.5,1730147728036510976,,-0.07912852,1.00437832,0.00549945,0.03036364,0.04784759,-0.03299989,-0.00007958,0.00100369,0.00000520,0.00003021,0.00004706,-0.00003428,,,,,,,,,,,,,,,,,,,,,,,
S,-0.5,1730147728037513216,,-0.07850081,1.00383520,0.00528052,0.02887762,0.05189108,-0.03245713,-0.00007903,0.00100426,0.00000604,0.00002979,0.00005364,-0.00003165,,,,,,,,,,,,,,,,,,,,,,,
S,-0.5,1730147728041948672,,,,,,,,,,,,,,0.70235467,-0.67677599,-0.17567404,0.13345766,-55.05537033,0.00187767,0.00236560,0.00910234,0.00797966,0.02853307,0.03809614,-0.03950321,-0.75764400,9.83903790,0.03806295,-0.11089063,0.08270073,0.25543746,0.64675337,-9.75633717,0.21737450,0.89838791,0.00217913
S,-0.5,1730147728038520320,,-0.07618628,1.00376821,0.00514799,0.02560859,0.05029139,-0.03176185,-0.00007641,0.00100361,0.00000510,0.00002573,0.00005187,-0.00003172,,,,,,,,,,,,,,,,,,,,,,,
S,-0.5,1730147728039526400,,-0.07534033,1.00420642,0.00497449,0.02508836,0.05223693,-0.03238057,-0.00007476,0.00100411,0.00000496,0.00002414,0.00005137,-0.00003205,,,,,,,,,,,,,,,,,,,,,,,
S,-0.5,1730147728043950336,,,,,,,,,,,,,,0.70238775,-0.67675442,-0.17566380,0.13340659,-55.05537033,0.00187767,0.00236560,0.00910234,0.00797966,0.03136317,0.05125295,-0.03479325,-0.77505636,9.84839344,0.05919914,-0.12759763,0.09211731,0.27721605,0.64745873,-9.75627613,0.21801691,0.89838791,0.00217913
S,-0.5,1730147728040531712,,-0.07542235,1.00251138,0.00580229,0.02153247,0.05583294,-0.03219745,-0.00007514,0.00100296,0.00000560,0.00002201,0.00005580,-0.00003243,,,,,,,,,,,,,,,,,,,,,,,
S,-0.5,1730147728041536000,,-0.07369543,1.00456595,0.00444271,0.02463824,0.05546386,-0.03246851,-0.00007404,0.00100365,0.00000495,0.00002294,0.00005668,-0.00003236,,,,,,,,,,,,,,,,,,,,,,,
S,-0.5,1730147728045950976,,,,,,,,,,,,,,0.70242047,-0.67673486,-0.17564845,0.13335310,-55.05537033,0.00187767,0.00236560,0.00910234,0.00797966,0.02572041,0.04899151,-0.03518936,-0.73311895,9.84691238,0.04867980,-0.08499962,0.09069538,0.26731676,0.64811933,-9.75621700,0.21863696,0.89838791,0.00217913
S,-0.5,1730147728042540288,,-0.07366575,1.00060880,0.00574676,0.02138975,0.05898088,-0.03353057,-0.00007312,0.00100198,0.00000508,0.00002297,0.00005822,-0.00003342,,,,,,,,,,,,,,,,,,,,,,,
S,-0.5,1730147728043543552,,-0.07463024,1.00040758,0.00519606,0.01793831,0.05907331,-0.03125259,-0.00007445,0.00099918,0.00000571,0.00001753,0.00006018,-0.00003200,,,,,,,,,,,,,,,,,,,,,,,
S,-0.5,1730147728047949824,,,,,,,,,,,,,,0.70245123,-0.67671788,-0.17563275,0.13329774,-55.05537033,0.00187767,0.00236560,0.00910234,0.00797966,0.02452017,0.05429282,-0.03550350,-0.72603828,9.84247398,0.04857374,-0.07725203,0.08631420,0.26776713,0.64878625,-9.75615978,0.21919338,0.89838791,0.00217913
S,-0.5,1730147728044545792,,-0.07411327,1.00034153,0.00422101,0.01938257,0.05896549,-0.03395998,-0.00007451,0.00100029,0.00000422,0.00001802,0.00005901,-0.00003274,,,,,,,,,,,,,,,,,,,,,,,
S,-0.5,1730147728045547008,,-0.07594500,0.99860728,0.00385490,0.01860347,0.06051423,-0.03378179,-0.00007545,0.00099890,0.00000361,0.00001920,0.00006020,-0.00003468,,,,,,,,,,,,,,,,,,,,,,,
S,-0.5,1730147728049946880,,,,,,,,,,,,,,0.70248061,-0.67670387,-0.17561439,0.13323885,-55.05537033,0.00187767,0.00236560,0.00910234,0.00797966,0.01910949,0.05779328,-0.03514704,-0.73006028,9.79865360,0.05601221,-0.08060932,0.04254723,0.27570611,0.64945096,-9.75610638,0.21969390,0.89838791,0.00217913
S,-0.5,1730147728046547456,,-0.07504742,0.99625981,0.00456124,0.01810581,0.06497868,-0.03288291,-0.00007579,0.00099613,0.00000432,0.00001795,0.00006466,-0.00003299,,,,,,,,,,,,,,,,,,,,,,,
S,-0.5,1730147728047546880,,-0.07627862,0.99467695,0.00282239,0.01587051,0.06157650,-0.02895927,-0.00007577,0.00099422,0.00000336,0.00001612,0.00006362,-0.00002939,,,,,,,,,,,,,,,,,,,,,,,
S,-0.5,1730147728051947520,,,,,,,,,,,,,,0.70250911,-0.67669117,-0.17559581,0.13317761,-55.05537033,0.00187767,0.00236560,0.00910234,0.00797966,0.02078283,0.05781577,-0.03781849,-0.73989016,9.79587650,0.03541129,-0.08975291,0.03982735,0.25556901,0.65013725,-9.75604916,0.22015773,0.89838791,0.00217913
S,-0.5,1730147728048550656,,-0.07568609,0.99544543,0.00109045,0.01719077,0.06214549,-0.02734907,-0.00007619,0.00099480,0.00000085,0.00001624,0.00006096,-0.00002639,,,,,,,,,,,,,,,,,,,,,,,
S,-0.5,1730147728049553408,,-0.07396320,0.99744827,0.00008418,0.01672973,0.06214092,-0.02965686,-0.00007409,0.00099733,-0.00000028,0.00001723,0.00006232,-0.00002873,,,,,,,,,,,,,,,,,,,,,,,
S,-0.5,1730147728053945856,,,,,,,,,,,,,,0.70253724,-0.67667943,-0.17557523,0.13311599,-55.05537033,0.00184018,0.00233122,0.00909370,0.00800823,0.01769634,0.06123298,-0.03252856,-0.74303931,9.74994087,0.03298282,-0.09224218,-0.00605488,0.25359282,0.65079713,-9.75599575,0.22060999,0.89838791,0.00217913
S,-0.5,1730147728050555648,,-0.07336280,0.99825007,-0.00003099,0.01884878,0.06465966,-0.02574064,-0.00007292,0.00099874,-0.00000033,0.00001832,0.00006420,-0.00002719,,,,,,,,,,,,,,,,,,,,,,,
S,-0.5,1730147728051563520,,-0.07531275,0.99873775,-0.00102662,0.01929775,0.05913062,-0.02766328,-0.00007477,0.00099890,-0.00000088,0.00001989,0.00006094,-0.00002607,,,,,,,,,,,,,,,,,,,,,,,
S,-0.5,1730147728055949056,,,,,,,,,,,,,,0.70256448,-0.67666894,-0.17555201,0.13305557,-55.05537033,0.00184018,0.00233122,0.00909370,0.00800823,0.01881183,0.05994012,-0.03186755,-0.72655326,9.78045559,-0.00278881,-0.07515442,0.02451229,0.21825524,0.65139884,-9.75594330,0.22104405,0.89838791,0.00217913
S,-0.5,1730147728052570624,,-0.07558868,0.99858147,-0.00582672,0.02045309,0.05565535,-0.02556447,-0.00007616,0.00099877,-0.00000527,0.00002039,0.00005453,-0.00002656,,,,,,,,,,,,,,,,,,,,,,,
S,-0.5,1730147728053576704,,-0.07531708,0.99702656,-0.00577907,0.01602246,0.05653190,-0.02497480,-0.00007545,0.00099726,-0.00000732,0.00001720,0.00005527,-0.00002441,,,,,,,,,,,,,,,,,,,,,,,
S,-0.5,1730147728057950976,,,,,,,,,,,,,,0.70259255,-0.67665732,-0.17552838,0.13299756,-55.05537033,0.00184018,0.00233122,0.00909370,0.00800823,0.02146878,0.05855419,-0.02920992,-0.73321635,9.79590416,-0.00865418,-0.08124781,0.04000950,0.21285959,0.65196854,-9.75589466,0.22151376,0.89838791,0.00217913
S,-0.5,1730147728054581760,,-0.07401574,0.99632543,-0.00952912,0.01831829,0.05887791,-0.02605048,-0.00007417,0.00099596,-0.00000883,0.00001649,0.00005873,-0.00002567,,,,,,,,,,,,,,,,,,,,,,,
S,-0.5,1730147728055585792,,-0.07503112,0.99639857,-0.00964224,0.01834790,0.05770512,-0.02745263,-0.00007443,0.00099616,-0.00001082,0.00001907,0.00005866,-0.00002754,,,,,,,,,,,,,,,,,,,,,,,
S,-0.5,1730147728059950848,,,,,,,,,,,,,,0.70261973,-0.67664564,-0.17550576,0.13294345,-55.05537033,0.00184018,0.00233122,0.00909370,0.00800823,0.01877333,0.05288368,-0.02755637,-0.73995185,9.77977180,-0.07173951,-0.08745444,0.02392197,0.15023988,0.65249741,-9.75584984,0.22197939,0.89838791,0.00217913
S,-0.5,1730147728056589056,,-0.07717402,0.99704736,-0.01058939,0.01708726,0.05480990,-0.02596642,-0.00007711,0.00099695,-0.00001045,0.00001733,0.00005496,-0.00002668,,,,,,,,,,,,,,,,,,,,,,,
S,-0.5,1730147728057591296,,-0.07636764,0.99604028,-0.00940622,0.01439193,0.05327484,-0.02505824,-0.00007720,0.00099643,-0.00000992,0.00001448,0.00005263,-0.00002475,,,,,,,,,,,,,,,,,,,,,,,
S,-0.5,1730147728061948928,,,,,,,,,,,,,,0.70264649,-0.67663395,-0.17548449,0.13288952,-55.05537033,0.00184018,0.00233122,0.00909370,0.00800823,0.02065139,0.05628221,-0.03068282,-0.72993433,9.76901245,-0.10606456,-0.07689321,0.01320934,0.11637004,0.65304112,-9.75580311,0.22243460,0.89838791,0.00217913
S,-0.5,1730147728058592768,,-0.07632544,0.99786609,-0.00770403,0.01636477,0.05033531,-0.02488367,-0.00007608,0.00099721,-0.00000764,0.00001515,0.00005038,-0.00002463,,,,,,,,,,,,,,,,,,,,,,,
S,-0.5,1730147728059593216,,-0.07540654,0.99848145,-0.00517518,0.01348785,0.04605401,-0.02514360,-0.00007556,0.00099895,-0.00000509,0.00001464,0.00004590,-0.00002504,,,,,,,,,,,,,,,,,,,,,,,
S,-0.5,1730147728063948544,,,,,,,,,,,,,,0.70267212,-0.67662299,-0.17546445,0.13283612,-55.05537033,0.00184018,0.00233122,0.00909370,0.00800823,0.01605847,0.05024943,-0.02789269,-0.75703514,9.77163792,-0.09730574,-0.10344619,0.01588249,0.12555581,0.65358895,-9.75575542,0.22286156,0.89838791,0.00217913
S,-0.5,1730147728060596224,,-0.07459684,1.00034511,-0.00583953,0.01302238,0.04489878,-0.01961810,-0.00007445,0.00100020,-0.00000491,0.00001219,0.00004375,-0.00002070,,,,,,,,,,,,,,,,,,,,,,,
S,-0.5,1730147728061598208,,-0.07414643,1.00178838,-0.00834827,0.01914305,0.04082110,-0.02140833,-0.00007397,0.00100212,-0.00000810,0.00001788,0.00004119,-0.00001932,,,,,,,,,,,,,,,,,,,,,,,
S,-0.5,1730147728065946624,,,,,,,,,,,,,,0.70269501,-0.67661297,-0.17544834,0.13278753,-55.05537033,0.00184018,0.00233122,0.00909370,0.00800823,0.01621661,0.04351345,-0.02818334,-0.74099129,9.79636192,-0.04994280,-0.08687609,0.04064941,0.17329547,0.65411520,-9.75571251,0.22323826,0.89838791,0.00217913
S,-0.5,1730147728062600704,,-0.07466003,0.99996495,-0.00762763,0.01657371,0.03736871,-0.02813389,-0.00007442,0.00100076,-0.00000856,0.00001899,0.00003670,-0.00002748,,,,,,,,,,,,,,,,,,,,,,,
S,-0.5,1730147728063602688,,-0.07665137,1.00021565,-0.00762230,0.01924799,0.03608868,-0.02831138,-0.00007645,0.00099959,-0.00000739,0.00001794,0.00003522,-0.00003042,,,,,,,,,,,,,,,,,,,,,,,
S,-0.5,1730147728067948288,,,,,,,,,,,,,,0.70271766,-0.67660147,-0.17543419,0.13274501,-55.05537033,0.00184018,0.00233122,0.00909370,0.00800823,0.01946092,0.03881150,-0.02246680,-0.72540200,9.82743454,-0.07947688,-0.07081097,0.07176304,0.14416324,0.65459102,-9.75567150,0.22364011,0.89838791,0.00217913
S,-0.5,1730147728064608000,,-0.07604323,0.99850476,-0.00369085,0.02089906,0.03565990,-0.02699594,-0.00007679,0.00099890,-0.00000440,0.00002145,0.00003533,-0.00002729,,,,,,,,,,,,,,,,,,,,,,,
S,-0.5,1730147728065612288,,-0.07709067,0.99798316,-0.00522526,0.01898862,0.03385027,-0.02811459,-0.00007671,0.00099753,-0.00000369,0.00001986,0.00003404,-0.00002749,,,,,,,,,,,,,,,,,,,,,,,
S,-0.5,1730147728069948672,,,,,,,,,,,,,,0.70274085,-0.67658764,-0.17542538,0.13270451,-55.05537033,0.00184018,0.00233122,0.00909370,0.00800823,0.01952233,0.03283959,-0.03356247,-0.74975067,9.80262566,-0.07250820,-0.09462929,0.04699898,0.15155903,0.65512139,-9.75562668,0.22406723,0.89838791,0.00217913
S,-0.5,1730147728066615808,,-0.07696369,0.99859130,-0.00542307,0.01905740,0.02651183,-0.02792230,-0.00007732,0.00099831,-0.00000588,0.00001844,0.00002727,-0.00002831,,,,,,,,,,,,,,,,,,,,,,,
S,-0.5,1730147728067618304,,-0.07913348,0.99804848,-0.00608031,0.02205255,0.03133690,-0.02415840,-0.00007870,0.00099834,-0.00000602,0.00002153,0.00002812,-0.00002478,,,,,,,,,,,,,,,,,,,,,,,
S,-0.5,1730147728071947008,,,,,,,,,,,,,,0.70276463,-0.67657191,-0.17542171,0.13266373,-55.05537033,0.00184018,0.00233122,0.00909370,0.00800823,0.02143938,0.03165983,-0.03063515,-0.75223678,9.78246021,-0.03623478,-0.09650362,0.02688503,0.18827456,0.65573317,-9.75557518,0.22450934,0.89838791,0.00217913
S,-0.5,1730147728068620032,,-0.07947194,0.99734998,-0.00526800,0.02549199,0.02881046,-0.02507808,-0.00008010,0.00099730,-0.00000563,0.00002582,0.00003081,-0.00002371,,,,,,,,,,,,,,,,,,,,,,,
S,-0.5,1730147728069620736,,-0.07908240,0.99675751,-0.00255664,0.02689071,0.02845662,-0.02763539,-0.00007926,0.00099664,-0.00000279,0.00002773,0.00002772,-0.00002746,,,,,,,,,,,,,,,,,,,,,,,
S,-0.5,1730147728073943808,,,,,,,,,,,,,,0.70278859,-0.67655492,-0.17541841,0.13262764,-56.30254364,0.00184018,0.00233122,0.00909370,0.00800823,0.02310835,0.02574158,-0.02792359,-0.77176899,9.79037857,-0.05907642,-0.11547750,0.03485203,0.16590443,0.65629148,-9.75552654,0.22498085,-0.34878540,0.00217913
S,-0.5,1730147728070620672,,-0.08066576,0.99467391,-0.00116752,0.02980328,0.03002423,-0.02911860,-0.00008025,0.00099486,-0.00000056,0.00002972,0.00002963,-0.00002966,,,,,,,,,,,,,,,,,,,,,,,
S,-0.5,1730147728071619840,,-0.07958420,0.99618322,-0.00165947,0.02812953,0.02976450,-0.03393328,-0.00008029,0.00099525,-0.00000113,0.00002936,0.00003031,-0.00003353,,,,,,,,,,,,,,,,,,,,,,,
S,-0.5,1730147728075943424,,,,,,,,,,,,,,0.70281470,-0.67653477,-0.17541678,0.13259439,-56.30254364,0.00184018,0.00233122,0.00909370,0.00800823,0.02930946,0.02533397,-0.03060604,-0.77728701,9.77372742,-0.02736882,-0.12043589,0.01825047,0.19815734,0.65685111,-9.75547695,0.22552615,-0.34878540,0.00217913
S,-0.5,1730147728072622848,,-0.08064094,0.99628192,0.00046583,0.03183431,0.02327632,-0.03396223,-0.00008010,0.00099674,-0.00000008,0.00003063,0.00002437,-0.00003549,,,,,,,,,,,,,,,,,,,,,,,
S,-0.5,1730147728073624832,,-0.08170658,0.99538559,0.00094420,0.03417873,0.02463548,-0.03461390,-0.00008185,0.00099558,0.00000153,0.00003493,0.00002232,-0.00003450,,,,,,,,,,,,,,,,,,,,,,,
S,-0.5,1730147728077941248,,,,,,,,,,,,,,0.70284420,-0.67651123,-0.17541683,0.13255802,-56.30254364,0.00184018,0.00233122,0.00909370,0.00800823,0.03093882,0.02792794,-0.03667314,-0.78732717,9.76002598,-0.01106083,-0.12983191,0.00460720,0.21508791,0.65749526,-9.75541878,0.22614874,-0.34878540,0.00217913
S,-0.5,1730147728074626048,,-0.07719813,0.99555278,0.00135347,0.03600892,0.02480772,-0.03568466,-0.00007836,0.00099524,0.00000143,0.00003642,0.00002521,-0.00003570,,,,,,,,,,,,,,,,,,,,,,,
S,-0.5,1730147728075626496,,-0.07632555,0.99368262,-0.00006526,0.03783520,0.02384069,-0.03227530,-0.00007505,0.00099408,0.00000032,0.00003809,0.00002407,-0.00003324,,,,,,,,,,,,,,,,,,,,,,,
S,-0.5,1730147728079937536,,,,,,,,,,,,,,0.70287615,-0.67648417,-0.17542067,0.13252163,-56.30254364,0.00184018,0.00233122,0.00909370,0.00800823,0.03651013,0.01994052,-0.03764726,-0.80266708,9.76330280,0.01503793,-0.14445758,0.00794792,0.24187642,0.65820950,-9.75535488,0.22683850,-0.34878540,0.00217913
S,-0.5,1730147728076631296,,-0.07587497,0.99122083,-0.00072818,0.03745163,0.02657214,-0.03566620,-0.00007568,0.00099107,-0.00000106,0.00003810,0.00002577,-0.00003396,,,,,,,,,,,,,,,,,,,,,,,
S,-0.5,1730147728077635328,,-0.07601243,0.98869783,-0.00171721,0.03602836,0.02406654,-0.03479305,-0.00007584,0.00098837,-0.00000175,0.00003616,0.00002539,-0.00003603,,,,,,,,,,,,,,,,,,,,,,,
S,-0.5,1730147728081937152,,,,,,,,,,,,,,0.70291048,-0.67645365,-0.17542604,0.13248822,-56.30254364,0.00184018,0.00233122,0.00909370,0.00800823,0.03966405,0.02168845,-0.03637812,-0.73597747,9.74855137,0.00316405,-0.07705528,-0.00673771,0.23077343,0.65892220,-9.75528908,0.22760938,-0.34878540,0.00217913
S,-0.5,1730147728078638336,,-0.07260612,0.98685110,-0.00284630,0.03904053,0.02841303,-0.03436070,-0.00007327,0.00098638,-0.00000296,0.00003804,0.00002683,-0.00003416,,,,,,,,,,,,,,,,,,,,,,,
S,-0.5,1730147728079640576,,-0.06922625,0.98628116,-0.00453417,0.04160691,0.02382197,-0.03128136,-0.00006876,0.00098580,-0.00000459,0.00004210,0.00002604,-0.00003170,,,,,,,,,,,,,,,,,,,,,,,
S,-0.5,1730147728083935744,,,,,,,,,,,,,,0.70294559,-0.67642277,-0.17543076,0.13245334,-56.30254364,0.00184018,0.00233122,0.00909370,0.00800823,0.03774295,0.02300850,-0.03917357,-0.74377763,9.69262505,-0.01714566,-0.08412856,-0.06259632,0.21124835,0.65964907,-9.75522137,0.22839402,-0.34878540,0.00217913
S,-0.5,1730147728080642304,,-0.06717058,0.98619330,-0.00624958,0.04285595,0.02451258,-0.02762947,-0.00006647,0.00098603,-0.00000648,0.00004345,0.00002293,-0.00002731,,,,,,,,,,,,,,,,,,,,,,,
S,-0.5,1730147728081643008,,-0.06635147,0.98473269,-0.00447197,0.04356452,0.02549344,-0.02840857,-0.00006585,0.00098497,-0.00000534,0.00004383,0.00002554,-0.00002710,,,,,,,,,,,,,,,,,,,,,,,
S,-0.5,1730147728085932288,,,,,,,,,,,,,,0.70298213,-0.67639077,-0.17543399,0.13241868,-56.30254364,0.00184018,0.00233122,0.00909370,0.00800823,0.04367753,0.02365689,-0.03484577,-0.67426485,9.66736507,-0.04498554,-0.01390427,-0.08778858,0.18423371,0.66036057,-9.75515366,0.22921924,-0.34878540,0.00217913
S,-0.5,1730147728082642944,,-0.06421272,0.98183125,-0.00221189,0.04513138,0.02714710,-0.03132059,-0.00006434,0.00098189,-0.00000206,0.00004507,0.00002716,-0.00003104,,,,,,,,,,,,,,,,,,,,,,,
S,-0.5,1730147728083641856,,-0.06124273,0.98145223,0.00049984,0.04718147,0.02524784,-0.03140435,-0.00006110,0.00098060,0.00000073,0.00004731,0.00002612,-0.00003232,,,,,,,,,,,,,,,,,,,,,,,
S,-0.5,1730147728087932416,,,,,,,,,,,,,,0.70302069,-0.67635685,-0.17543365,0.13238779,-56.30254364,0.00184018,0.00233122,0.00909370,0.00800823,0.04541146,0.02315230,-0.03024711,-0.64572799,9.65925694,-0.05237755,0.01525646,-0.09583378,0.17774229,0.66098446,-9.75509071,0.23011984,-0.34878540,0.00217913
S,-0.5,1730147728084644864,,-0.06061336,0.98089945,0.00398631,0.04555864,0.02604874,-0.02938745,-0.00005978,0.00098088,0.00000422,0.00004651,0.00002530,-0.00002978,,,,,,,,,,,,,,,,,,,,,,,
S,-0.5,1730147728085646848,,-0.05922940,0.98093116,0.00120098,0.04224699,0.02500620,-0.02574858,-0.00005928,0.00098075,0.00000282,0.00004233,0.00002545,-0.00002577,,,,,,,,,,,,,,,,,,,,,,,
S,-0.5,1730147728089930240,,,,,,,,,,,,,,0.70306098,-0.67632097,-0.17543313,0.13235709,-56.30254364,0.00184018,0.00233122,0.00909370,0.00800823,0.04888583,0.02373655,-0.03545859,-0.59920257,9.61637688,0.00712318,0.06241220,-0.13864708,0.23819225,0.66161478,-9.75502396,0.23106906,-0.34878540,0.00217913
S,-0.5,1730147728086648320,,-0.05953375,0.97858351,0.00124017,0.03893661,0.02947910,-0.02227505,-0.00005904,0.00097902,0.00000035,0.00003848,0.00002833,-0.00002175,,,,,,,,,,,,,,,,,,,,,,,
S,-0.5,1730147728087648768,,-0.05746285,0.97590095,0.00347387,0.03125066,0.02925874,-0.02173116,-0.00005794,0.00097564,0.00000308,0.00003159,0.00003072,-0.00002072,,,,,,,,,,,,,,,,,,,,,,,
S,-0.5,1730147728091926784,,,,,,,,,,,,,,0.70310074,-0.67628580,-0.17543229,0.13232678,-56.30254364,0.00184018,0.00233122,0.00909370,0.00800823,0.04391022,0.02306780,-0.02891025,-0.58134013,9.61786652,0.02762695,0.08089143,-0.13709354,0.25963259,0.66223156,-9.75496006,0.23200564,-0.34878540,0.00217913
S,-0.5,1730147728088648704,,-0.05820713,0.97664982,0.00447021,0.02240305,0.02966425,-0.01865228,-0.00005741,0.00097566,0.00000500,0.00002156,0.00002952,-0.00001904,,,,,,,,,,,,,,,,,,,,,,,
S,-0.5,1730147728089652480,,-0.05732105,0.97622031,0.00479053,0.01593542,0.03271225,-0.01425838,-0.00005772,0.00097654,0.00000505,0.00001429,0.00003229,-0.00001408,,,,,,,,,,,,,,,,,,,,,,,
S,-0.5,1730147728093926656,,,,,,,,,,,,,,0.70313483,-0.67625749,-0.17542697,0.13229761,-56.30254364,0.00184018,0.00233122,0.00909370,0.00800823,0.03317149,0.02833982,-0.02386683,-0.56815720,9.56777096,0.03021467,0.09457743,-0.18713665,0.26300707,0.66273463,-9.75490761,0.23279241,-0.34878540,0.00217913
S,-0.5,1730147728090655488,,-0.05534781,0.97562611,0.00614611,0.01784322,0.03715467,-0.01678823,-0.00005542,0.00097560,0.00000600,0.00001544,0.00003732,-0.00001493,,,,,,,,,,,,,,,,,,,,,,,
S,-0.5,1730147728091657472,,-0.05612010,0.97640419,0.00704669,0.01528267,0.03758068,-0.01018653,-0.00005535,0.00097607,0.00000731,0.00001636,0.00003892,-0.00001219,,,,,,,,,,,,,,,,,,,,,,,
S,-0.5,1730147728095925248,,,,,,,,,,,,,,0.70315927,-0.67624050,-0.17541714,0.13226777,-56.30254364,0.00184018,0.00233122,0.00909370,0.00800823,0.01587236,0.02990480,-0.01721919,-0.56602561,9.57655430,0.04952415,0.09709620,-0.17831516,0.28283441,0.66312182,-9.75486946,0.23331027,-0.34878540,0.00217913
S,-0.5,1730147728092659456,,-0.05493690,0.97765028,0.00776116,0.01372255,0.03954170,-0.01087351,-0.00005540,0.00097767,0.00000792,0.00001319,0.00003932,-0.00000865,,,,,,,,,,,,,,,,,,,,,,,
S,-0.5,1730147728093660416,,-0.05459388,0.97703493,0.00765878,0.01200989,0.04415387,-0.00688462,-0.00005428,0.00097754,0.00000790,0.00001182,0.00004394,-0.00000783,,,,,,,,,,,,,,,,,,,,,,,
S,-0.5,1730147728097921792,,,,,,,,,,,,,,0.70317870,-0.67623013,-0.17540255,0.13223682,-56.30254364,0.00184018,0.00233122,0.00909370,0.00800823,0.01793327,0.03653459,-0.01533379,-0.54281229,9.57201290,0.07173052,0.12061179,-0.18282700,0.30541518,0.66342407,-9.75483990,0.23368466,-0.34878540,0.00217913
S,-0.5,1730147728094661120,,-0.05286008,0.97828496,0.00605745,0.01702710,0.04296233,-0.00755673,-0.00005307,0.00097786,0.00000632,0.00001557,0.00004465,-0.00000616,,,,,,,,,,,,,,,,,,,,,,,
S,-0.5,1730147728095661312,,-0.05211496,0.97588789,0.00519237,0.02025555,0.04511273,-0.00430705,-0.00005170,0.00097672,0.00000484,0.00002127,0.00004434,-0.00000511,,,,,,,,,,,,,,,,,,,,,,,
S,-0.5,1730147728099921920,,,,,,,,,,,,,,0.70319790,-0.67622197,-0.17538191,0.13220392,-56.30254364,0.00184018,0.00233122,0.00909370,0.00800823,0.01340256,0.04155735,-0.01097056,-0.53230017,9.58642578,0.07752050,0.13136220,-0.16838932,0.31156293,0.66366237,-9.75481510,0.23404244,-0.34878540,0.00217913
S,-0.5,1730147728096664320,,-0.05442534,0.97541344,0.00581365,0.02415053,0.04794122,-0.00442733,-0.00005377,0.00097474,0.00000543,0.00002447,0.00004811,-0.00000337,,,,,,,,,,,,,,,,,,,,,,,
S,-0.5,1730147728097666560,,-0.05211477,0.97530735,0.00732151,0.02149228,0.04847911,-0.00357090,-0.00005327,0.00097518,0.00000725,0.00002322,0.00004928,-0.00000376,,,,,,,,,,,,,,,,,,,,,,,
S,-0.5,1730147728101920000,,,,,,,,,,,,,,0.70321870,-0.67621303,-0.17535664,0.13217209,-56.30254364,0.00184018,0.00233122,0.00909370,0.00800823,0.02284410,0.04196000,-0.00825398,-0.50698787,9.57836342,0.04745791,0.15684223,-0.17642975,0.28190804,0.66383010,-9.75479317,0.23445012,-0.34878540,0.00217913
S,-0.5,1730147728098668288,,-0.05207342,0.97469050,0.00909088,0.02053985,0.05470767,0.00200169,-0.00005135,0.00097477,0.00000925,0.00001987,0.00005375,0.00000126,,,,,,,,,,,,,,,,,,,,,,,
S,-0.5,1730147728099668992,,-0.05089764,0.97385591,0.00856135,0.02292894,0.05697208,0.00726085,-0.00005110,0.00097381,0.00000922,0.00002219,0.00005854,0.00000808,,,,,,,,,,,,,,,,,,,,,,,
S,-0.5,1730147728103917312,,,,,,,,,,,,,,0.70324361,-0.67620081,-0.17532738,0.13214089,-56.30254364,0.00184018,0.00233122,0.00909370,0.00800823,0.02479316,0.04689897,-0.00690732,-0.52240044,9.56320667,0.07105312,0.14155692,-0.19156551,0.30602735,0.66395736,-9.75477219,0.23497422,-0.34878540,0.00217913
S,-0.5,1730147728100669440,,-0.05004911,0.97126681,0.00691157,0.02348702,0.05743723,0.01093612,-0.00004983,0.00097147,0.00000704,0.00002415,0.00005807,0.00001194,,,,,,,,,,,,,,,,,,,,,,,
S,-0.5,1730147728101668864,,-0.05275110,0.97154725,0.00643607,0.02037906,0.06203155,0.01165389,-0.00005199,0.00097067,0.00000600,0.00002112,0.00006134,0.00001269,,,,,,,,,,,,,,,,,,,,,,,
S,-0.5,1730147728105923072,,,,,,,,,,,,,,0.70320535,-0.67620003,-0.17543156,0.13221042,-56.30254364,0.00182053,0.00230971,0.00899511,0.00794631,0.02376890,0.05616068,0.00493645,-0.50109589,9.54982662,0.09042276,0.16324574,-0.20493603,0.32470375,0.66434163,-9.75476265,0.23428100,-0.34878540,0.00217913
S,-0.5,1730147728102678016,,-0.05156362,0.97415793,0.00381203,0.02074441,0.06440277,0.01372627,-0.00005264,0.00097377,0.00000414,0.00001969,0.00006543,0.00001358,,,,,,,,,,,,,,,,,,,,,,,
S,-0.5,1730147728103686400,,-0.05429766,0.97359705,0.00344402,0.01389884,0.06417291,0.01723406,-0.00005342,0.00097453,0.00000268,0.00001526,0.00006497,0.00001726,,,,,,,,,,,,,,,,,,,,,,,
S,-0.5,1730147728107927040,,,,,,,,,,,,,,0.70323020,-0.67619258,-0.17538312,0.13218066,-56.30254364,0.00182053,0.00230971,0.00899511,0.00794631,0.02269856,0.05896227,0.00955070,-0.50984800,9.51904202,0.05881597,0.15432549,-0.23571873,0.29362684,0.66417348,-9.75476074,0.23481089,-0.34878540,0.00217913
S,-0.5,1730147728104694016,,-0.05628686,0.97480786,0.00432045,0.01051048,0.07035889,0.02074079,-0.00005680,0.00097441,0.00000404,0.00000895,0.00006916,0.00002122,,,,,,,,,,,,,,,,,,,,,,,
S,-0.5,1730147728105700608,,-0.05632823,0.97596931,0.00520773,0.00652035,0.07418182,0.02154389,-0.00005695,0.00097614,0.00000533,0.00000617,0.00007546,0.00002251,,,,,,,,,,,,,,,,,,,,,,,
S,-0.5,1730147728109929472,,,,,,,,,,,,,,0.70325267,-0.67618877,-0.17532977,0.13215135,-56.30254364,0.00182053,0.00230971,0.00899511,0.00794631,0.01683610,0.06258685,0.01411374,-0.52389711,9.55687428,0.02624258,0.14001709,-0.19789314,0.26152012,0.66391420,-9.75476742,0.23527755,-0.34878540,0.00217913
S,-0.5,1730147728106706944,,-0.05657399,0.97537267,0.00404770,0.00648550,0.07532404,0.02291256,-0.00005654,0.00097585,0.00000454,0.00000522,0.00007633,0.00002292,,,,,,,,,,,,,,,,,,,,,,,
S,-0.5,1730147728107712256,,-0.05796488,0.97679299,0.00256887,0.00408629,0.06846754,0.02782836,-0.00005779,0.00097635,0.00000247,0.00000451,0.00007008,0.00002737,,,,,,,,,,,,,,,,,,,,,,,
S,-0.5,1730147728111930624,,,,,,,,,,,,,,0.70327067,-0.67619205,-0.17526913,0.13211942,-56.30254364,0.00182053,0.00230971,0.00899511,0.00794631,0.00774394,0.07307370,0.01937154,-0.55852592,9.57270050,0.05222723,0.10502964,-0.18208504,0.28783494,0.66355556,-9.75478554,0.23560771,-0.34878540,0.00217913
S,-0.5,1730147728108716800,,-0.05828071,0.98013341,0.00243222,-0.00009669,0.07438863,0.02602509,-0.00005867,0.00097998,0.00000199,-0.00000010,0.00007113,0.00002792,,,,,,,,,,,,,,,,,,,,,,,
S,-0.5,1730147728109720320,,-0.06065769,0.98292428,0.00251272,-0.00280369,0.07225998,0.02645371,-0.00006033,0.00098348,0.00000245,-0.00000364,0.00007453,0.00002580,,,,,,,,,,,,,,,,,,,,,,,
S,-0.5,1730147728113930752,,,,,,,,,,,,,,0.70328480,-0.67620033,-0.17520398,0.13208836,-56.12286758,0.00182053,0.00230971,0.00899511,0.00794631,0.00608833,0.06769430,0.02422819,-0.56672674,9.57467365,0.02420678,0.09637046,-0.18013668,0.26004264,0.66309720,-9.75481033,0.23583587,-0.16910934,0.00217913
S,-0.5,1730147728110723584,,-0.06233766,0.98630780,0.00033754,-0.00284988,0.07506169,0.03103188,-0.00006279,0.00098658,0.00000076,-0.00000370,0.00007388,0.00003034,,,,,,,,,,,,,,,,,,,,,,,
S,-0.5,1730147728111726080,,-0.06460556,0.98750412,0.00088552,-0.00517380,0.07928643,0.03062666,-0.00006473,0.00098836,0.00000009,-0.00000477,0.00007941,0.00003216,,,,,,,,,,,,,,,,,,,,,,,
S,-0.5,1730147728115929088,,,,,,,,,,,,,,0.70329529,-0.67621225,-0.17513868,0.13205792,-56.12286758,0.00182053,0.00230971,0.00899511,0.00794631,-0.00206619,0.07214888,0.02265918,-0.59160113,9.64464951,0.02407411,0.07100552,-0.11019135,0.26004133,0.66260666,-9.75484085,0.23596720,-0.16910934,0.00217913
S,-0.5,1730147728112727808,,-0.06768460,0.98917323,-0.00019670,-0.00593937,0.08194518,0.03128822,-0.00006785,0.00098925,0.00000017,-0.00000654,0.00008281,0.00003104,,,,,,,,,,,,,,,,,,,,,,,
S,-0.5,1730147728113728512,,-0.07079514,0.99217123,0.00009268,-0.00851713,0.08398770,0.03440706,-0.00007121,0.00099216,-0.00000030,-0.00000829,0.00008446,0.00003405,,,,,,,,,,,,,,,,,,,,,,,
S,-0.5,1730147728117928704,,,,,,,,,,,,,,0.70330316,-0.67622846,-0.17506909,0.13202520,-56.12286758,0.00182053,0.00230971,0.00899511,0.00794631,-0.00318910,0.07702806,0.02901488,-0.63476592,9.69253731,0.00091831,0.02730137,-0.06233883,0.23693296,0.66206729,-9.75487614,0.23601465,-0.16910934,0.00217913
S,-0.5,1730147728114737920,,-0.07174134,0.99460304,0.00261237,-0.00821988,0.08433815,0.03284491,-0.00007256,0.00099512,0.00000225,-0.00000909,0.00008492,0.00003412,,,,,,,,,,,,,,,,,,,,,,,
S,-0.5,1730147728115746304,,-0.07397708,0.99831378,0.00430466,-0.01572136,0.08452220,0.03111068,-0.00007387,0.00099841,0.00000480,-0.00001426,0.00008460,0.00003093,,,,,,,,,,,,,,,,,,,,,,,
S,-0.5,1730147728119933440,,,,,,,,,,,,,,0.70330977,-0.67624772,-0.17499353,0.13199161,-56.12286758,0.00182053,0.00230971,0.00899511,0.00794631,-0.00671528,0.08208032,0.03090832,-0.69832999,9.72974396,-0.00298335,-0.03688514,-0.02517414,0.23303989,0.66144484,-9.75491810,0.23602323,-0.16910934,0.00217913
S,-0.5,1730147728116754688,,-0.07411398,0.99972248,0.00315230,-0.01599164,0.08791982,0.03150245,-0.00007480,0.00100065,0.00000390,-0.00001833,0.00008736,0.00003088,,,,,,,,,,,,,,,,,,,,,,,
S,-0.5,1730147728117762048,,-0.07544565,1.00451040,0.00284216,-0.01805882,0.08891465,0.03198468,-0.00007525,0.00100409,0.00000253,-0.00001777,0.00008982,0.00003202,,,,,,,,,,,,,,,,,,,,,,,
S,-0.5,1730147728121936640,,,,,,,,,,,,,,0.70331371,-0.67627054,-0.17491719,0.13195500,-56.12286758,0.00182053,0.00230971,0.00899511,0.00794631,-0.01268664,0.08221771,0.02778588,-0.72443980,9.79109478,0.04706864,-0.06360632,0.03613281,0.28301108,0.66083348,-9.75496197,0.23594244,-0.16910934,0.00217913
S,-0.5,1730147728118768384,,-0.07889485,1.00744772,0.00110823,-0.02205690,0.09063854,0.02998197,-0.00007869,0.00100844,0.00000132,-0.00002199,0.00009064,0.00003050,,,,,,,,,,,,,,,,,,,,,,,
S,-0.5,1730147728119773952,,-0.08123443,1.01037312,-0.00202322,-0.02324419,0.09326766,0.02749648,-0.00008191,0.00101078,-0.00000201,-0.00002430,0.00009334,0.00002731,,,,,,,,,,,,,,,,,,,,,,,
S,-0.5,1730147728123939072,,,,,,,,,,,,,,0.70331502,-0.67629683,-0.17484027,0.13191503,-56.12286758,0.00182053,0.00230971,0.00899511,0.00794631,-0.01619209,0.08743281,0.02887908,-0.73792297,9.84674835,0.02482687,-0.07768232,0.09174252,0.26059911,0.66024065,-9.75500584,0.23577225,-0.16910934,0.00217913
S,-0.5,1730147728120779264,,-0.08402151,1.01122284,-0.00342219,-0.02786249,0.09135392,0.02709989,-0.00008426,0.00101200,-0.00000416,-0.00002740,0.00009254,0.00002638,,,,,,,,,,,,,,,,,,,,,,,
S,-0.5,1730147728121783552,,-0.08258864,1.01290202,-0.00448758,-0.02442556,0.09255166,0.02579833,-0.00008374,0.00101287,-0.00000474,-0.00002652,0.00009172,0.00002591,,,,,,,,,,,,,,,,,,,,,,,
S,-0.5,1730147728125939456,,,,,,,,,,,,,,0.70331395,-0.67632693,-0.17476217,0.13186996,-56.12286758,0.00182053,0.00230971,0.00899511,0.00794631,-0.02272396,0.09095611,0.02416792,-0.80323887,9.91233158,-0.01967214,-0.14355755,0.15728188,0.21583800,0.65968132,-9.75504971,0.23551014,-0.16910934,0.00217913
S,-0.5,1730147728122787072,,-0.08535329,1.01279032,-0.00592046,-0.02566192,0.09602794,0.02400434,-0.00008440,0.00101335,-0.00000600,-0.00002434,0.00009578,0.00002392,,,,,,,,,,,,,,,,,,,,,,,
S,-0.5,1730147728123789568,,-0.08860926,1.01426339,-0.00629479,-0.02283874,0.09635097,0.02158369,-0.00008890,0.00101396,-0.00000668,-0.00002375,0.00009740,0.00002145,,,,,,,,,,,,,,,,,,,,,,,
S,-0.5,1730147728127938048,,,,,,,,,,,,,,0.70331049,-0.67635965,-0.17468604,0.13182132,-56.12286758,0.00182053,0.00230971,0.00899511,0.00794631,-0.02494289,0.08934229,0.02276589,-0.82117128,9.93283653,-0.04647754,-0.16199017,0.17774391,0.18868662,0.65918112,-9.75509262,0.23516417,-0.16910934,0.00217913
S,-0.5,1730147728124791296,,-0.09165411,1.01710546,-0.01048793,-0.02514545,0.09035376,0.02079094,-0.00009214,0.00101706,-0.00000985,-0.00002383,0.00009155,0.00002016,,,,,,,,,,,,,,,,,,,,,,,
S,-0.5,1730147728125792000,,-0.09536202,1.01776648,-0.01149253,-0.03122907,0.08875576,0.01968190,-0.00009566,0.00101855,-0.00001264,-0.00003086,0.00008714,0.00001963,,,,,,,,,,,,,,,,,,,,,,,
S,-0.5,1730147728129937664,,,,,,,,,,,,,,0.70330793,-0.67639196,-0.17461042,0.13176930,-56.12286758,0.00182053,0.00230971,0.00899511,0.00794631,-0.02216807,0.09501622,0.01830976,-0.87179077,9.94355297,-0.06553692,-0.21305370,0.18842316,0.16928850,0.65873706,-9.75512981,0.23482542,-0.16910934,0.00217913
S,-0.5,1730147728126795008,,-0.09774213,1.01777971,-0.01482786,-0.03345312,0.08990040,0.01697245,-0.00009849,0.00101799,-0.00001454,-0.00003499,0.00008918,0.00001711,,,,,,,,,,,,,,,,,,,,,,,
S,-0.5,1730147728127802880,,-0.09804753,1.01925838,-0.01617402,-0.03252414,0.08746622,0.01313195,-0.00009875,0.00101899,-0.00001699,-0.00003340,0.00008827,0.00001297,,,,,,,,,,,,,,,,,,,,,,,
S,-0.5,1730147728131941632,,,,,,,,,,,,,,0.70330393,-0.67642492,-0.17453882,0.13171625,-56.12286758,0.00182053,0.00230971,0.00899511,0.00794631,-0.02928080,0.08475453,0.01648845,-0.93808073,9.98857498,-0.12399594,-0.27972531,0.23341084,0.11044621,0.65835541,-9.75516415,0.23444216,-0.16910934,0.00217913
S,-0.5,1730147728128809728,,-0.09550369,1.01972055,-0.01825496,-0.02585812,0.08450663,0.00746127,-0.00009606,0.00102011,-0.00001831,-0.00002677,0.00008427,0.00000727,,,,,,,,,,,,,,,,,,,,,,,
S,-0.5,1730147728129815808,,-0.09397501,1.01836860,-0.01987999,-0.02993183,0.08731516,0.00764702,-0.00009344,0.00101876,-0.00002025,-0.00002707,0.00008586,0.00000581,,,,,,,,,,,,,,,,,,,,,,,
S,-0.5,1730147728133943808,,,,,,,,,,,,,,0.70329642,-0.67645997,-0.17447394,0.13166246,-56.12286758,0.00182053,0.00230971,0.00899511,0.00794631,-0.03182372,0.08589025,0.00982460,-0.96840698,9.99291706,-0.16662711,-0.31034827,0.23772049,0.06733128,0.65805870,-9.75519657,0.23395839,-0.16910934,0.00217913
S,-0.5,1730147728130820864,,-0.09154320,1.02011037,-0.02019456,-0.03009813,0.08680097,0.00086147,-0.00009150,0.00101936,-0.00002065,-0.00003136,0.00008779,0.00000215,,,,,,,,,,,,,,,,,,,,,,,
S,-0.5,1730147728131825152,,-0.09326851,1.01934886,-0.02237270,-0.03107415,0.08108965,-0.00644257,-0.00009218,0.00102004,-0.00002208,-0.00003095,0.00008196,-0.00000728,,,,,,,,,,,,,,,,,,,,,,,
S,-0.5,1730147728135944192,,,,,,,,,,,,,,0.70329100,-0.67649233,-0.17441393,0.13160457,-56.12286758,0.00182053,0.00230971,0.00899511,0.00794631,-0.02549266,0.08348023,0.00266556,-0.91636431,9.99063683,-0.19855647,-0.25846696,0.23541832,0.03495458,0.65789735,-9.75521851,0.23351105,-0.16910934,0.00217913
S,-0.5,1730147728132828672,,-0.09278390,1.01914203,-0.02428370,-0.03258338,0.08537676,-0.00730228,-0.00009342,0.00101894,-0.00002463,-0.00003262,0.00008278,-0.00000947,,,,,,,,,,,,,,,,,,,,,,,
S,-0.5,1730147728133831424,,-0.09016180,1.02063167,-0.02619691,-0.03199012,0.07769702,-0.01117587,-0.00009048,0.00102030,-0.00002646,-0.00003258,0.00008046,-0.00001075,,,,,,,,,,,,,,,,,,,,,,,
S,-0.5,1730147728137943552,,,,,,,,,,,,,,0.70328718,-0.67652166,-0.17436282,0.13154191,-56.12286758,0.00182053,0.00230971,0.00899511,0.00794631,-0.02937265,0.07958106,-0.01041807,-0.90399456,10.00319004,-0.21650214,-0.24605960,0.24796391,0.01658143,0.65793496,-9.75522614,0.23308358,-0.16910934,0.00217913
S,-0.5,1730147728134833920,,-0.08800671,1.01941466,-0.02708900,-0.03132049,0.07076957,-0.01351298,-0.00008756,0.00102011,-0.00002754,-0.00003125,0.00006958,-0.00001432,,,,,,,,,,,,,,,,,,,,,,,
S,-0.5,1730147728135835392,,-0.08639463,1.01985347,-0.02731441,-0.02921839,0.06606127,-0.01606297,-0.00008600,0.00101939,-0.00002756,-0.00002939,0.00006471,-0.00001634,,,,,,,,,,,,,,,,,,,,,,,
S,-0.5,1730147728139941120,,,,,,,,,,,,,,0.70328212,-0.67655116,-0.17431958,0.13147476,-56.12286758,0.00182053,0.00230971,0.00899511,0.00794631,-0.03100115,0.07807440,-0.01388840,-0.88734573,10.00567722,-0.25946036,-0.22921026,0.25045300,-0.02686161,0.65813547,-9.75522423,0.23259875,-0.16910934,0.00217913
S,-0.5,1730147728136836096,,-0.08703644,1.01969397,-0.02771515,-0.03029370,0.06630576,-0.01932758,-0.00008641,0.00101986,-0.00002771,-0.00002943,0.00006476,-0.00001955,,,,,,,,,,,,,,,,,,,,,,,
S,-0.5,1730147728137836032,,-0.08492783,1.01973844,-0.03019967,-0.02730847,0.06628887,-0.02011580,-0.00008552,0.00101968,-0.00002988,-0.00002819,0.00006637,-0.00002101,,,,,,,,,,,,,,,,,,,,,,,
S,-0.5,1730147728141940992,,,,,,,,,,,,,,0.70327663,-0.67657816,-0.17428537,0.13141041,-56.12286758,0.00182053,0.00230971,0.00899511,0.00794631,-0.02781002,0.06232905,-0.01948626,-0.84338880,9.99676514,-0.27024719,-0.18496037,0.24154949,-0.03813027,0.65842843,-9.75521564,0.23211692,-0.16910934,0.00217913
S,-0.5,1730147728138839040,,-0.08412662,1.01846135,-0.03162370,-0.02677271,0.06556503,-0.02702634,-0.00008360,0.00101871,-0.00003216,-0.00002592,0.00006569,-0.00002602,,,,,,,,,,,,,,,,,,,,,,,
S,-0.5,1730147728139841024,,-0.08491357,1.01924610,-0.03143227,-0.02599720,0.06037807,-0.03209822,-0.00008452,0.00101870,-0.00003192,-0.00002597,0.00006109,-0.00003338,,,,,,,,,,,,,,,,,,,,,,,
S,-0.5,1730147728143944960,,,,,,,,,,,,,,0.70327204,-0.67660177,-0.17425928,0.13134757,-56.12286758,0.00182053,0.00230971,0.00899511,0.00794631,-0.02661597,0.06398717,-0.02415443,-0.83861923,9.99964142,-0.29298294,-0.17979443,0.24444199,-0.06131524,0.65882480,-9.75519943,0.23166770,-0.16910934,0.00217913
S,-0.5,1730147728140847872,,-0.08289342,1.01661527,-0.03064929,-0.02439252,0.06157961,-0.03153455,-0.00008351,0.00101734,-0.00003073,-0.00002444,0.00005971,-0.00003325,,,,,,,,,,,,,,,,,,,,,,,
S,-0.5,1730147728141853696,,-0.08113260,1.01340044,-0.02994233,-0.02488064,0.05891631,-0.03197525,-0.00008081,0.00101315,-0.00002982,-0.00002428,0.00005978,-0.00003172,,,,,,,,,,,,,,,,,,,,,,,
S,-0.5,1730147728145947136,,,,,,,,,,,,,,0.70326948,-0.67662245,-0.17424001,0.13128027,-56.12286758,0.00182053,0.00230971,0.00899511,0.00794631,-0.02439044,0.05870748,-0.03651907,-0.82882071,9.99000549,-0.31303117,-0.16943216,0.23483467,-0.08177967,0.65938854,-9.75517082,0.23125149,-0.16910934,0.00217913
S,-0.5,1730147728142858752,,-0.07871851,1.01091802,-0.02874235,-0.02268321,0.05706975,-0.03598621,-0.00007860,0.00101035,-0.00002874,-0.00002324,0.00005656,-0.00003540,,,,,,,,,,,,,,,,,,,,,,,
S,-0.5,1730147728143862784,,-0.07970136,1.00910175,-0.02853420,-0.01833674,0.06176865,-0.04063519,-0.00007875,0.00100864,-0.00002819,-0.00001843,0.00006033,-0.00004107,,,,,,,,,,,,,,,,,,,,,,,
S,-0.5,1730147728147948032,,,,,,,,,,,,,,0.70326835,-0.67664039,-0.17422642,0.13121179,-56.12286758,0.00182053,0.00230971,0.00899511,0.00794631,-0.02270399,0.05740009,-0.03485844,-0.79246908,9.93557930,-0.29244959,-0.13241106,0.18044567,-0.06158090,0.66005802,-9.75513363,0.23086870,-0.16910934,0.00217913
S,-0.5,1730147728144867072,,-0.08023009,1.00912547,-0.02797192,-0.01764963,0.05488141,-0.04075871,-0.00008045,0.00100854,-0.00002801,-0.00001639,0.00005763,-0.00004222,,,,,,,,,,,,,,,,,,,,,,,
S,-0.5,1730147728145870336,,-0.07770357,1.00661981,-0.02742233,-0.01863718,0.05589564,-0.03989335,-0.00007833,0.00100708,-0.00002734,-0.00001824,0.00005352,-0.00004009,,,,,,,,,,,,,,,,,,,,,,,
S,-0.5,1730147728149947136,,,,,,,,,,,,,,0.70327020,-0.67665499,-0.17421520,0.13114151,-56.12286758,0.00182053,0.00230971,0.00899511,0.00794631,-0.01684983,0.05794451,-0.04420996,-0.77232111,9.89139557,-0.27645421,-0.11151850,0.13630486,-0.04589531,0.66080260,-9.75509071,0.23055890,-0.16910934,0.00217913
S,-0.5,1730147728146872832,,-0.07663802,1.00636852,-0.02407652,-0.01603946,0.05258062,-0.04112553,-0.00007603,0.00100562,-0.00002451,-0.00001683,0.00005351,-0.00004063,,,,,,,,,,,,,,,,,,,,,,,
S,-0.5,1730147728147874304,,-0.07498676,1.00418139,-0.02280056,-0.01469715,0.05120426,-0.04176827,-0.00007495,0.00100450,-0.00002197,-0.00001411,0.00005040,-0.00004204,,,,,,,,,,,,,,,,,,,,,,,
S,-0.5,1730147728151945216,,,,,,,,,,,,,,0.70327407,-0.67666632,-0.17420863,0.13107094,-56.12286758,0.00182053,0.00230971,0.00899511,0.00794631,-0.01666187,0.05113651,-0.04323255,-0.76816225,9.87610817,-0.26814353,-0.10653186,0.12106800,-0.03784001,0.66163039,-9.75504017,0.23030353,-0.16910934,0.00217913
S,-0.5,1730147728148875520,,-0.07110787,1.00292063,-0.02114120,-0.01363014,0.04255883,-0.04335225,-0.00007129,0.00100245,-0.00002104,-0.00001340,0.00004369,-0.00004327,,,,,,,,,,,,,,,,,,,,,,,
S,-0.5,1730147728149875968,,-0.07084341,0.99995399,-0.02224784,-0.01589585,0.04707862,-0.04189682,-0.00006966,0.00100009,-0.00002152,-0.00001514,0.00004351,-0.00004267,,,,,,,,,,,,,,,,,,,,,,,
S,-0.5,1730147728153945344,,,,,,,,,,,,,,0.70327866,-0.67667544,-0.17420560,0.13100378,-56.12286758,0.00182053,0.00230971,0.00899511,0.00794631,-0.01253700,0.04801653,-0.04518639,-0.73498613,9.85076809,-0.21542852,-0.07251614,0.09577751,0.01465702,0.66246998,-9.75499058,0.23008554,-0.16910934,0.00217913
S,-0.5,1730147728150879232,,-0.06932586,0.99935800,-0.02414282,-0.01285101,0.04791386,-0.03914054,-0.00006952,0.00099852,-0.00002415,-0.00001413,0.00004920,-0.00003918,,,,,,,,,,,,,,,,,,,,,,,
S,-0.5,1730147728151881472,,-0.06632438,0.99731636,-0.02439134,-0.01439018,0.04603935,-0.03937538,-0.00006639,0.00099750,-0.00002495,-0.00001314,0.00004665,-0.00003846,,,,,,,,,,,,,,,,,,,,,,,
S,-0.5,1730147728155943680,,,,,,,,,,,,,,0.70328355,-0.67668253,-0.17420675,0.13093935,-56.10172653,0.00182053,0.00230971,0.00899511,0.00794631,-0.01356738,0.04112291,-0.04580813,-0.68309921,9.80754852,-0.21102382,-0.01976198,0.05261230,0.01886603,0.66333723,-9.75493622,0.22988985,-0.14796829,0.00217913
S,-0.5,1730147728152888320,,-0.06542850,0.99659342,-0.02470986,-0.01229510,0.04693796,-0.03995613,-0.00006464,0.00099607,-0.00002473,-0.00001317,0.00004618,-0.00003993,,,,,,,,,,,,,,,,,,,,,,,
S,-0.5,1730147728153894144,,-0.06490705,0.99418479,-0.02419677,-0.01679611,0.04837263,-0.04212408,-0.00006472,0.00099439,-0.00002439,-0.00001531,0.00004840,-0.00004192,,,,,,,,,,,,,,,,,,,,,,,
S,-0.5,1730147728157945856,,,,,,,,,,,,,,0.70328820,-0.67668933,-0.17420794,0.13087754,-56.10172653,0.00182053,0.00230971,0.00899511,0.00794631,-0.01156416,0.04426320,-0.04159804,-0.65103036,9.78210926,-0.24467060,0.01313978,0.02722549,-0.01496935,0.66417015,-9.75488377,0.22970125,-0.14796829,0.00217913
S,-0.5,1730147728154899456,,-0.06075254,0.99194747,-0.02469943,-0.01688790,0.04508239,-0.04379998,-0.00006134,0.00099159,-0.00002444,-0.00001830,0.00004614,-0.00004419,,,,,,,,,,,,,,,,,,,,,,,
S,-0.5,1730147728155903744,,-0.05727405,0.98706317,-0.02496324,-0.01449992,0.04360825,-0.04380407,-0.00005658,0.00098724,-0.00002508,-0.00001496,0.00004283,-0.00004434,,,,,,,,,,,,,,,,,,,,,,,
S,-0.5,1730147728159945984,,,,,,,,,,,,,,0.70329314,-0.67669660,-0.17420717,0.13081431,-56.10172653,0.00182053,0.00230971,0.00899511,0.00794631,-0.01373426,0.04601542,-0.04505771,-0.63465494,9.75165749,-0.23919609,0.03033960,-0.00317383,-0.00968237,0.66499454,-9.75483131,0.22951372,-0.14796829,0.00217913
S,-0.5,1730147728156907008,,-0.05625661,0.98335326,-0.02584819,-0.01901885,0.04390008,-0.03824713,-0.00005533,0.00098247,-0.00002577,-0.00001744,0.00004338,-0.00003926,,,,,,,,,,,,,,,,,,,,,,,
S,-0.5,1730147728157909504,,-0.05535134,0.98066568,-0.02532898,-0.02134415,0.04340891,-0.03323317,-0.00005519,0.00097997,-0.00002570,-0.00002236,0.00004359,-0.00003238,,,,,,,,,,,,,,,,,,,,,,,
