state,extension,timestamp,invalid_fields,scaledAccelX,scaledAccelY,scaledAccelZ,scaledGyroX,scaledGyroY,scaledGyroZ,deltaVelX,deltaVelY,deltaVelZ,deltaThetaX,deltaThetaY,deltaThetaZ,estOrientQuaternionW,estOrientQuaternionX,estOrientQuaternionY,estOrientQuaternionZ,estPressureAlt,estAttitudeUncertQuaternionW,estAttitudeUncertQuaternionX,estAttitudeUncertQuaternionY,estAttitudeUncertQuaternionZ,estAngularRateX,estAngularRateY,estAngularRateZ,estCompensatedAccelX,estCompensatedAccelY,estCompensatedAccelZ,estLinearAccelX,estLinearAccelY,estLinearAccelZ,estGravityVectorX,estGravityVectorY,estGravityVectorZ,current_altitude,speed
S,-0.5,1730147509121814120,,-0.00576994,0.00501088,-1.00097537,0.00115324,0.00317141,0.00433947,-0.00000558,0.00000488,-0.00100086,0.00000059,0.00000426,0.00000420,,,,,,,,,,,,,,,,,,,,,,,
S,-0.5,1730147509122819072,,-0.00375034,0.00229063,-1.00165129,-0.00000001,0.00076463,0.00302415,-0.00000414,0.00000300,-0.00100162,0.00000162,0.00000058,0.00000345,,,,,,,,,,,,,,,,,,,,,,,
S,-0.5,1730147509127850260,,,,,,,,,,,,,,0.99924684,-0.00208170,-0.00271747,0.03865192,-55.96432877,0.00613893,0.00080283,0.00068903,0.15881775,-0.00113208,0.00244971,0.00092016,-0.05984657,0.04647428,-9.82020760,-0.00830581,0.00373161,-0.04027367,0.05154077,-0.04274267,9.77993393,0.00000000,0.00000000
S,-0.5,1730147509123823104,,-0.00572861,0.00102836,-1.00085819,-0.00045376,0.00353284,0.00521592,-0.00000473,0.00000039,-0.00100122,-0.00000074,0.00000226,0.00000440,,,,,,,,,,,,,,,,,,,,,,,
S,-0.5,1730147509124826368,,-0.00829137,0.00111854,-0.99742240,-0.00218843,0.00213588,0.00386180,-0.00000846,0.00000070,-0.00099779,-0.00000202,0.00000327,0.00000481,,,,,,,,,,,,,,,,,,,,,,,
S,-0.5,1730147509129848832,,,,,,,,,,,,,,0.99924684,-0.00208170,-0.00271747,0.03865192,-55.96432877,0.00613893,0.00080283,0.00068903,0.15881775,0.00335658,-0.00186954,0.00029704,-0.04056056,0.02942233,-9.82252789,0.01098020,-0.01332034,-0.04259396,0.05154077,-0.04274267,9.77993393,0.00000000,0.00000000
S,-0.5,1730147509125828608,,-0.00959682,0.00250956,-1.00020504,-0.00406677,-0.00009469,0.00577808,-0.00001018,0.00000229,-0.00099861,-0.00000428,-0.00000013,0.00000500,,,,,,,,,,,,,,,,,,,,,,,
S,-0.5,1730147509126829824,,-0.00895338,0.00126748,-0.99828154,-0.00568367,-0.00095285,0.00334533,-0.00000949,0.00000194,-0.00099952,-0.00000599,-0.00000151,0.00000440,,,,,,,,,,,,,,,,,,,,,,,
S,-0.5,1730147509131845376,,,,,,,,,,,,,,0.99924684,-0.00208170,-0.00271747,0.03865192,-55.96432877,0.00613893,0.00080283,0.00068903,0.15881775,-0.00028448,0.00082539,0.00164787,-0.08291872,0.00686925,-9.78501797,-0.03137795,-0.03587343,-0.00508404,0.05154077,-0.04274267,9.77993393,0.00000000,0.00000000
S,-0.5,1730147509127831040,,-0.00662996,0.00139136,-0.99705243,-0.00582487,0.00314655,0.00494143,-0.00000685,0.00000097,-0.00099666,-0.00000631,0.00000213,0.00000388,,,,,,,,,,,,,,,,,,,,,,,
S,-0.5,1730147509128831232,,-0.00409985,0.00405070,-0.99725384,-0.00505424,0.00310585,0.00522819,-0.00000382,0.00000361,-0.00099683,-0.00000524,0.00000442,0.00000568,,,,,,,,,,,,,,,,,,,,,,,
S,-0.5,1730147509133840896,,,,,,,,,,,,,,0.99924684,-0.00208170,-0.00271747,0.03865192,-55.96432877,0.00613893,0.00080283,0.00068903,0.15881775,-0.00425458,-0.00395239,0.00123968,-0.09302530,0.01898640,-9.80191135,-0.04148453,-0.02375627,-0.02197742,0.05154077,-0.04274267,9.77993393,0.00000000,0.00000000
S,-0.5,1730147509129831168,,-0.00368512,0.00427664,-0.99855685,-0.00522782,0.00743687,0.00445919,-0.00000295,0.00000508,-0.00099838,-0.00000495,0.00000664,0.00000469,,,,,,,,,,,,,,,,,,,,,,,
S,-0.5,1730147509130834176,,-0.00416473,0.00169447,-0.99952203,-0.00433629,0.00388980,0.00519902,-0.00000395,0.00000224,-0.00099976,-0.00000455,0.00000591,0.00000482,,,,,,,,,,,,,,,,,,,,,,,
S,-0.5,1730147509135838720,,,,,,,,,,,,,,0.99924684,-0.00208170,-0.00271747,0.03865192,-55.96432877,0.00613893,0.00080283,0.00068903,0.15881775,-0.00350600,0.00197267,0.00252651,-0.03745934,0.03537131,-9.77552414,0.01408143,-0.00737136,0.00440979,0.05154077,-0.04274267,9.77993393,0.00000000,0.00000000
S,-0.5,1730147509131836416,,-0.00251331,0.00281776,-1.00150812,-0.00120495,-0.00506502,0.00830845,-0.00000297,0.00000179,-0.00100145,-0.00000149,-0.00000457,0.00000798,,,,,,,,,,,,,,,,,,,,,,,
S,-0.5,1730147509132837632,,-0.00279903,0.00314113,-1.00059390,-0.00049520,-0.00140753,0.00391895,-0.00000222,0.00000344,-0.00100139,0.00000037,-0.00000492,0.00000571,,,,,,,,,,,,,,,,,,,,,,,
S,-0.5,1730147509137835776,,,,,,,,,,,,,,0.99924684,-0.00208170,-0.00271747,0.03865192,-55.96432877,0.00613893,0.00080283,0.00068903,0.15881775,-0.00282032,0.00346742,0.00166220,-0.03869346,0.02192283,-9.80431080,0.01284731,-0.02081984,-0.02437687,0.05154077,-0.04274267,9.77993393,0.00000000,0.00000000
S,-0.5,1730147509133838848,,-0.00560338,0.00364958,-0.99897945,-0.00177833,0.00318746,0.00247019,-0.00000518,0.00000366,-0.00099898,-0.00000132,0.00000352,0.00000134,,,,,,,,,,,,,,,,,,,,,,,
S,-0.5,1730147509134839296,,-0.00503652,0.00386489,-0.99834490,-0.00377102,0.00317463,0.00019135,-0.00000603,0.00000399,-0.00099795,-0.00000382,0.00000464,0.00000014,,,,,,,,,,,,,,,,,,,,,,,
S,-0.5,1730147509139835904,,,,,,,,,,,,,,0.99924684,-0.00208170,-0.00271747,0.03865192,-55.74237442,0.00613893,0.00080283,0.00068903,0.15881775,0.00210578,-0.00736792,0.00254862,-0.02178533,0.03373271,-9.82030201,0.02975544,-0.00900996,-0.04036808,0.05154077,-0.04274267,9.77993393,0.22195435,0.00000000
S,-0.5,1730147509135843328,,-0.00425592,0.00419863,-0.99797773,-0.00157496,0.00163289,0.00076114,-0.00000422,0.00000421,-0.00099784,-0.00000261,0.00000191,-0.00000007,,,,,,,,,,,,,,,,,,,,,,,
S,-0.5,1730147509136846336,,-0.00292885,0.00502900,-0.99929422,-0.00649286,-0.00020216,-0.00186248,-0.00000292,0.00000498,-0.00099894,-0.00000490,-0.00000036,-0.00000120,,,,,,,,,,,,,,,,,,,,,,,
S,-0.5,1730147509141833984,,,,,,,,,,,,,,0.99924684,-0.00208170,-0.00271747,0.03865192,-55.74237442,0.00613893,0.00080283,0.00068903,0.15881775,-0.00208419,0.00219414,-0.00301338,-0.05915440,0.03910718,-9.78651047,-0.00761364,-0.00363549,-0.00657654,0.05154077,-0.04274267,9.77993393,0.22195435,0.00000000
S,-0.5,1730147509137848576,,-0.00490214,0.00366793,-1.00116456,-0.00021138,-0.00111786,0.00362153,-0.00000412,0.00000418,-0.00100124,-0.00000292,-0.00000154,0.00000179,,,,,,,,,,,,,,,,,,,,,,,
S,-0.5,1730147509138849792,,-0.00428405,0.00317193,-1.00028038,0.00109823,-0.00051807,0.00551574,-0.00000502,0.00000283,-0.00100104,0.00000286,-0.00000092,0.00000692,,,,,,,,,,,,,,,,,,,,,,,
S,-0.5,1730147509143830528,,,,,,,,,,,,,,0.99924684,-0.00208170,-0.00271747,0.03865192,-55.74237442,0.00613893,0.00080283,0.00068903,0.15881775,-0.00316709,-0.00280496,-0.00436205,-0.02865192,0.04888180,-9.79623699,0.02288884,0.00613913,-0.01630306,0.05154077,-0.04274267,9.77993393,0.22195435,0.00000000
S,-0.5,1730147509139850240,,-0.00576379,0.00503774,-0.99960542,-0.00351482,-0.00111244,0.00332514,-0.00000530,0.00000454,-0.00099945,-0.00000226,-0.00000081,0.00000433,,,,,,,,,,,,,,,,,,,,,,,
S,-0.5,1730147509140849920,,-0.00818164,0.00344846,-1.00008619,-0.00652528,0.00163711,0.00207675,-0.00000821,0.00000433,-0.00099978,-0.00000745,0.00000095,0.00000161,,,,,,,,,,,,,,,,,,,,,,,
S,-0.5,1730147509145825280,,,,,,,,,,,,,,0.99924684,-0.00208170,-0.00271747,0.03865192,-55.74237442,0.00613893,0.00080283,0.00068903,0.15881775,0.00459294,-0.00336397,0.00375957,-0.04927267,0.02773644,-9.81681442,0.00226809,-0.01500624,-0.03688049,0.05154077,-0.04274267,9.77993393,0.22195435,0.00000000
S,-0.5,1730147509141848832,,-0.00700837,0.00296984,-0.99884421,-0.00337920,-0.00059038,0.00165300,-0.00000799,0.00000255,-0.00099922,-0.00000491,0.00000069,0.00000133,,,,,,,,,,,,,,,,,,,,,,,
S,-0.5,1730147509142851840,,-0.00638100,0.00188293,-0.99894369,-0.00032231,0.00145822,0.00263512,-0.00000612,0.00000193,-0.00099853,0.00000012,0.00000038,0.00000232,,,,,,,,,,,,,,,,,,,,,,,
S,-0.5,1730147509147823360,,,,,,,,,,,,,,0.99924684,-0.00208170,-0.00271747,0.03865192,-55.74237442,0.00613893,0.00080283,0.00068903,0.15881775,-0.00571349,-0.00149711,-0.00155134,-0.08054408,0.04247800,-9.80453205,-0.02900331,-0.00026468,-0.02459812,0.05154077,-0.04274267,9.77993393,0.22195435,0.00000000
S,-0.5,1730147509143854592,,-0.00645664,0.00309167,-0.99809361,-0.00046628,0.00299597,0.00693639,-0.00000624,0.00000253,-0.00099828,0.00000053,0.00000337,0.00000647,,,,,,,,,,,,,,,,,,,,,,,
S,-0.5,1730147509144856320,,-0.00436643,0.00329860,-0.99994081,0.00200579,0.00236597,0.00272914,-0.00000477,0.00000365,-0.00099933,0.00000151,0.00000297,0.00000486,,,,,,,,,,,,,,,,,,,,,,,
S,-0.5,1730147509149820160,,,,,,,,,,,,,,0.99924684,-0.00208170,-0.00271747,0.03865192,-55.74237442,0.00613893,0.00080283,0.00068903,0.15881775,0.00185691,-0.00206847,-0.00083583,-0.06003189,0.01890374,-9.79223728,-0.00849112,-0.02383893,-0.01230335,0.05154077,-0.04274267,9.77993393,0.22195435,0.00000000
S,-0.5,1730147509145857280,,-0.00429533,0.00398391,-1.00107324,-0.00089990,0.00313422,0.00257191,-0.00000364,0.00000393,-0.00100146,0.00000041,0.00000279,0.00000126,,,,,,,,,,,,,,,,,,,,,,,
S,-0.5,1730147509146857216,,-0.00504957,0.00592565,-1.00051939,0.00062510,0.00182840,0.00078735,-0.00000489,0.00000579,-0.00100098,-0.00000058,0.00000231,0.00000106,,,,,,,,,,,,,,,,,,,,,,,
S,-0.5,1730147509151815424,,,,,,,,,,,,,,0.99924684,-0.00208170,-0.00271747,0.03865192,-55.74237442,0.00613893,0.00080283,0.00068903,0.15881775,0.00324401,0.00052447,0.00170507,-0.04678078,0.03575191,-9.80012417,0.00475999,-0.00699077,-0.02019024,0.05154077,-0.04274267,9.77993393,0.22195435,0.00000000
S,-0.5,1730147509147860992,,-0.00505552,0.00533725,-0.99971396,-0.00048729,0.00532594,0.00255659,-0.00000529,0.00000606,-0.00099968,0.00000020,0.00000427,0.00000167,,,,,,,,,,,,,,,,,,,,,,,
S,-0.5,1730147509148864256,,-0.00633910,0.00436016,-0.99906510,-0.00113211,0.00209449,0.00249580,-0.00000611,0.00000435,-0.00099893,-0.00000137,0.00000379,0.00000307,,,,,,,,,,,,,,,,,,,,,,,
S,-0.5,1730147509153814272,,,,,,,,,,,,,,0.99924684,-0.00208170,-0.00271747,0.03865192,-55.74237442,0.00613893,0.00080283,0.00068903,0.15881775,0.00115631,-0.00013526,-0.00209608,-0.04795391,0.05679108,-9.81626511,0.00358686,0.01404840,-0.03633118,0.05154077,-0.04274267,9.77993393,0.22195435,0.00000000
S,-0.5,1730147509149866752,,-0.00722356,0.00407891,-1.00025964,0.00139879,0.00485651,0.00443687,-0.00000747,0.00000382,-0.00099984,0.00000073,0.00000333,0.00000406,,,,,,,,,,,,,,,,,,,,,,,
S,-0.5,1730147509150868480,,-0.00923003,0.00291548,-0.99800825,-0.00070798,0.00650228,0.00226496,-0.00000915,0.00000304,-0.00099880,0.00000048,0.00000708,0.00000328,,,,,,,,,,,,,,,,,,,,,,,
S,-0.5,1730147509155811328,,,,,,,,,,,,,,0.99924684,-0.00208170,-0.00271747,0.03865192,-55.74237442,0.00613893,0.00080283,0.00068903,0.15881775,0.00036417,0.00134946,-0.00008762,-0.05989722,0.04266405,-9.79612350,-0.00835646,-0.00007863,-0.01618958,0.05154077,-0.04274267,9.77993393,0.22195435,0.00000000
S,-0.5,1730147509151869440,,-0.00718364,0.00271927,-0.99893987,-0.00144700,0.00444308,0.00459084,-0.00000819,0.00000238,-0.00099805,-0.00000198,0.00000534,0.00000348,,,,,,,,,,,,,,,,,,,,,,,
S,-0.5,1730147509152869376,,-0.00660519,0.00158469,-0.99797904,-0.00087922,0.00449777,0.00101325,-0.00000606,0.00000173,-0.00099845,-0.00000122,0.00000383,0.00000240,,,,,,,,,,,,,,,,,,,,,,,
S,-0.5,1730147509157806336,,,,,,,,,,,,,,0.99924684,-0.00208170,-0.00271747,0.03865192,-55.74237442,0.00613893,0.00080283,0.00068903,0.15881775,0.00221361,0.00463698,0.00011981,-0.08969837,0.02978631,-9.79485798,-0.03815761,-0.01295636,-0.01492405,0.05154077,-0.04274267,9.77993393,0.22195435,0.00000000
S,-0.5,1730147509153868544,,-0.00695798,0.00144128,-1.00062597,-0.00169081,0.00433123,0.00451556,-0.00000671,0.00000111,-0.00099984,-0.00000136,0.00000438,0.00000274,,,,,,,,,,,,,,,,,,,,,,,
S,-0.5,1730147509154871296,,-0.00448771,0.00276147,-1.00270331,-0.00159531,0.00126206,0.00594709,-0.00000505,0.00000248,-0.00100317,-0.00000187,0.00000177,0.00000680,,,,,,,,,,,,,,,,,,,,,,,
S,-0.5,1730147509159804416,,,,,,,,,,,,,,0.99924684,-0.00208170,-0.00271747,0.03865192,-55.74237442,0.00613893,0.00080283,0.00068903,0.15881775,0.00051558,0.00138692,-0.00075401,-0.05941882,0.01694898,-9.79145145,-0.00787805,-0.02579369,-0.01151752,0.05154077,-0.04274267,9.77993393,0.22195435,0.00000000
S,-0.5,1730147509155874304,,-0.00627325,0.00418825,-1.00034678,-0.00385896,-0.00004476,0.00447120,-0.00000516,0.00000435,-0.00100144,-0.00000342,-0.00000078,0.00000520,,,,,,,,,,,,,,,,,,,,,,,
S,-0.5,1730147509156876288,,-0.00668737,0.00416415,-1.00076294,-0.00405970,0.00232511,0.00268234,-0.00000718,0.00000462,-0.00099994,-0.00000474,0.00000148,0.00000254,,,,,,,,,,,,,,,,,,,,,,,
S,-0.5,1730147509161801472,,,,,,,,,,,,,,0.99924684,-0.00208170,-0.00271747,0.03865192,-55.74237442,0.00613893,0.00080283,0.00068903,0.15881775,-0.00013779,-0.00067877,0.00364420,-0.04951426,0.02428131,-9.83772087,0.00202650,-0.01846137,-0.05778694,0.05154077,-0.04274267,9.77993393,0.22195435,0.00000000
S,-0.5,1730147509157877248,,-0.00594305,0.00438293,-1.00050831,-0.00313238,0.00174873,0.00108107,-0.00000621,0.00000434,-0.00100069,-0.00000336,0.00000261,0.00000080,,,,,,,,,,,,,,,,,,,,,,,
S,-0.5,1730147509158877184,,-0.00558429,0.00495765,-1.00038218,-0.00206540,0.00286683,0.00119513,-0.00000541,0.00000492,-0.00100032,-0.00000196,0.00000248,0.00000066,,,,,,,,,,,,,,,,,,,,,,,
S,-0.5,1730147509163796992,,,,,,,,,,,,,,0.99924684,-0.00208170,-0.00271747,0.03865192,-55.74237442,0.00613893,0.00080283,0.00068903,0.15881775,-0.00301057,-0.00096690,-0.00062006,-0.07041460,0.04533417,-9.80603409,-0.01887384,0.00259149,-0.02610016,0.05154077,-0.04274267,9.77993393,0.22195435,0.00000000
S,-0.5,1730147509159876352,,-0.00461091,0.00440816,-1.00047195,-0.00067749,0.00328733,0.00425500,-0.00000467,0.00000469,-0.00100042,-0.00000059,0.00000357,0.00000374,,,,,,,,,,,,,,,,,,,,,,,
S,-0.5,1730147509160884992,,-0.00586307,0.00371974,-1.00251877,-0.00036307,0.00244614,0.00487089,-0.00000533,0.00000367,-0.00100218,0.00000002,0.00000273,0.00000573,,,,,,,,,,,,,,,,,,,,,,,
S,-0.5,1730147509165800704,,,,,,,,,,,,,,0.99924684,-0.00208170,-0.00271747,0.03865192,-55.74237442,0.00613893,0.00080283,0.00068903,0.15881775,-0.00023088,0.00003476,-0.00249292,-0.05307905,0.04827568,-9.80982685,-0.00153828,0.00553301,-0.02989292,0.05154077,-0.04274267,9.77993393,0.22195435,0.00000000
S,-0.5,1730147509161892864,,-0.00640073,0.00483550,-1.00062835,0.00186596,0.00237102,-0.00035503,-0.00000670,0.00000441,-0.00100162,0.00000156,0.00000212,0.00000079,,,,,,,,,,,,,,,,,,,,,,,
S,-0.5,1730147509162899712,,-0.00719372,0.00342705,-0.99914581,0.00178294,-0.00130388,-0.00011636,-0.00000722,0.00000404,-0.00099881,0.00000251,-0.00000066,-0.00000182,,,,,,,,,,,,,,,,,,,,,,,
S,-0.5,1730147509167803136,,,,,,,,,,,,,,0.99924684,-0.00208170,-0.00271747,0.03865192,-55.74237442,0.00613893,0.00080283,0.00068903,0.15881775,0.00175479,0.00028737,0.00257536,-0.05222823,0.03598904,-9.82798386,-0.00068747,-0.00675363,-0.04804993,0.05154077,-0.04274267,9.77993393,0.22195435,0.00000000
S,-0.5,1730147509163906048,,-0.00677631,0.00376641,-0.99839711,-0.00112406,-0.00112178,0.00365732,-0.00000710,0.00000326,-0.00099806,-0.00000062,-0.00000232,0.00000305,,,,,,,,,,,,,,,,,,,,,,,
S,-0.5,1730147509164911872,,-0.00581694,0.00650095,-0.99882615,0.00182321,0.00053585,0.00177949,-0.00000586,0.00000611,-0.00099851,0.00000036,0.00000029,0.00000332,,,,,,,,,,,,,,,,,,,,,,,
S,-0.5,1730147509169804288,,,,,,,,,,,,,,0.99924684,-0.00208170,-0.00271747,0.03865192,-55.74237442,0.00613893,0.00080283,0.00068903,0.15881775,0.00424075,-0.00310554,-0.00498081,-0.07081403,0.03959952,-9.79501438,-0.01927326,-0.00314315,-0.01508045,0.05154077,-0.04274267,9.77993393,0.22195435,0.00000000
S,-0.5,1730147509165916928,,-0.00669028,0.00679624,-0.99975938,-0.00015377,0.00358795,-0.00089313,-0.00000623,0.00000761,-0.00099973,0.00000114,0.00000356,-0.00000101,,,,,,,,,,,,,,,,,,,,,,,
S,-0.5,1730147509166920960,,-0.00545072,0.00580063,-0.99939525,-0.00002710,0.00058587,0.00408445,-0.00000595,0.00000608,-0.00099976,-0.00000068,0.00000210,0.00000233,,,,,,,,,,,,,,,,,,,,,,,
S,-0.5,1730147509171803392,,,,,,,,,,,,,,0.99924684,-0.00208170,-0.00271747,0.03865192,-55.74237442,0.00613893,0.00080283,0.00068903,0.15881775,0.00209560,-0.00215282,0.00016425,-0.05744900,0.05993873,-9.79203701,-0.00590824,0.01719606,-0.01210308,0.05154077,-0.04274267,9.77993393,0.22195435,0.00000000
S,-0.5,1730147509167924224,,-0.00504711,0.00395058,-1.00066268,-0.00457908,0.00018519,0.00758288,-0.00000473,0.00000397,-0.00100032,-0.00000371,-0.00000070,0.00000853,,,,,,,,,,,,,,,,,,,,,,,
S,-0.5,1730147509168926464,,-0.00566345,0.00433620,-0.99798697,-0.00311810,0.00282874,0.00380938,-0.00000542,0.00000368,-0.00099888,-0.00000483,0.00000222,0.00000561,,,,,,,,,,,,,,,,,,,,,,,
S,-0.5,1730147509173800960,,,,,,,,,,,,,,0.99924684,-0.00208170,-0.00271747,0.03865192,-55.74237442,0.00613893,0.00080283,0.00068903,0.15881775,0.00105379,-0.00034262,-0.00082827,-0.05838928,0.05958194,-9.80428123,-0.00684851,0.01683926,-0.02434731,0.05154077,-0.04274267,9.77993393,0.22195435,0.00000000
S,-0.5,1730147509169927680,,-0.00748110,0.00308410,-0.99926424,-0.00223096,0.00367705,0.00543814,-0.00000735,0.00000343,-0.00099818,-0.00000193,0.00000436,0.00000394,,,,,,,,,,,,,,,,,,,,,,,
S,-0.5,1730147509170928128,,-0.00586460,0.00205857,-0.99953973,-0.00250610,0.00306222,0.00509133,-0.00000674,0.00000185,-0.00099990,-0.00000217,0.00000344,0.00000567,,,,,,,,,,,,,,,,,,,,,,,
S,-0.5,1730147509175796736,,,,,,,,,,,,,,0.99924684,-0.00208170,-0.00271747,0.03865192,-55.74237442,0.00613893,0.00080283,0.00068903,0.15881775,-0.00309929,-0.00022457,0.00245095,-0.05317904,0.03606237,-9.79563332,-0.00163828,-0.00668031,-0.01569939,0.05154077,-0.04274267,9.77993393,0.22195435,0.00000000
S,-0.5,1730147509171927808,,-0.00558391,0.00226759,-0.99976474,-0.00242526,0.00313523,0.00112535,-0.00000512,0.00000190,-0.00099981,-0.00000253,0.00000293,0.00000174,,,,,,,,,,,,,,,,,,,,,,,
S,-0.5,1730147509172930560,,-0.00545352,0.00271584,-0.99985045,-0.00299704,-0.00380768,-0.00150041,-0.00000539,0.00000270,-0.00099991,-0.00000287,-0.00000252,-0.00000229,,,,,,,,,,,,,,,,,,,,,,,
S,-0.5,1730147509177801216,,,,,,,,,,,,,,0.99924684,-0.00208170,-0.00271747,0.03865192,-55.74237442,0.00613893,0.00080283,0.00068903,0.15881775,-0.00044052,0.00099850,0.00251516,-0.06606695,0.01810664,-9.80563354,-0.01452618,-0.02463604,-0.02569962,0.05154077,-0.04274267,9.77993393,0.22195435,0.00000000
S,-0.5,1730147509173938944,,-0.00360226,0.00508761,-1.00056756,-0.00049806,-0.00284998,-0.00129202,-0.00000390,0.00000480,-0.00100046,-0.00000113,-0.00000523,-0.00000217,,,,,,,,,,,,,,,,,,,,,,,
S,-0.5,1730147509174946304,,-0.00584890,0.00548899,-1.00061595,-0.00268500,0.00076891,0.00092805,-0.00000485,0.00000617,-0.00100084,-0.00000149,0.00000042,0.00000059,,,,,,,,,,,,,,,,,,,,,,,
S,-0.5,1730147509179803648,,,,,,,,,,,,,,0.99924684,-0.00208170,-0.00271747,0.03865192,-55.53098679,0.00613893,0.00080283,0.00068903,0.15881775,-0.00113422,-0.00496843,-0.00544337,-0.05284133,0.02648739,-9.80573368,-0.00130057,-0.01625529,-0.02579975,0.05154077,-0.04274267,9.77993393,0.43334198,0.00000000
S,-0.5,1730147509175952896,,-0.00727258,0.00595339,-0.99957561,-0.00513419,0.00063131,0.00382698,-0.00000773,0.00000600,-0.00099978,-0.00000539,0.00000181,0.00000401,,,,,,,,,,,,,,,,,,,,,,,
S,-0.5,1730147509176958720,,-0.00772898,0.00473817,-0.99822861,-0.00271822,0.00006384,0.00380483,-0.00000810,0.00000511,-0.00099814,-0.00000394,0.00000012,0.00000473,,,,,,,,,,,,,,,,,,,,,,,
S,-0.5,1730147509181804544,,,,,,,,,,,,,,0.99924684,-0.00208170,-0.00271747,0.03865192,-55.53098679,0.00613893,0.00080283,0.00068903,0.15881775,0.00024100,-0.00202922,-0.00256661,-0.04757169,0.06051728,-9.81484222,0.00396907,0.01777461,-0.03490829,0.05154077,-0.04274267,9.77993393,0.43334198,0.00000000
S,-0.5,1730147509177963520,,-0.00771403,0.00407308,-0.99803334,-0.00269711,0.00319781,0.00438096,-0.00000786,0.00000381,-0.00099764,-0.00000193,0.00000245,0.00000427,,,,,,,,,,,,,,,,,,,,,,,
S,-0.5,1730147509178967552,,-0.00872690,0.00172899,-0.99895889,-0.00255576,0.00254967,0.00288611,-0.00000854,0.00000194,-0.00099873,-0.00000257,0.00000367,0.00000334,,,,,,,,,,,,,,,,,,,,,,,
S,-0.5,1730147509183803648,,,,,,,,,,,,,,0.99924684,-0.00208170,-0.00271747,0.03865192,-55.53098679,0.00613893,0.00080283,0.00068903,0.15881775,-0.00220357,-0.00232231,0.00157399,-0.07942764,0.05007930,-9.78843117,-0.02788688,0.00733663,-0.00849724,0.05154077,-0.04274267,9.77993393,0.43334198,0.00000000
S,-0.5,1730147509179970816,,-0.00958449,0.00242883,-1.00015569,-0.00140222,0.00475205,0.00067858,-0.00000975,0.00000156,-0.00100023,-0.00000157,0.00000415,0.00000060,,,,,,,,,,,,,,,,,,,,,,,
S,-0.5,1730147509180973056,,-0.00771694,0.00419248,-1.00096297,0.00117225,0.00152811,0.00265670,-0.00000833,0.00000409,-0.00100120,0.00000107,0.00000281,0.00000159,,,,,,,,,,,,,,,,,,,,,,,
S,-0.5,1730147509185801216,,,,,,,,,,,,,,0.99924684,-0.00208170,-0.00271747,0.03865192,-55.53098679,0.00613893,0.00080283,0.00068903,0.15881775,-0.00084153,0.00121955,0.00018348,-0.08372930,0.01905666,-9.79418087,-0.03218854,-0.02368601,-0.01424694,0.05154077,-0.04274267,9.77993393,0.43334198,0.00000000
S,-0.5,1730147509181974528,,-0.00852292,0.00412966,-1.00151443,-0.00263774,0.00484169,0.00630510,-0.00000778,0.00000470,-0.00100167,-0.00000113,0.00000321,0.00000627,,,,,,,,,,,,,,,,,,,,,,,
S,-0.5,1730147509182975232,,-0.00782780,0.00483844,-0.99863219,-0.00212570,0.00429729,0.00640856,-0.00000821,0.00000469,-0.00099933,-0.00000343,0.00000545,0.00000755,,,,,,,,,,,,,,,,,,,,,,,
S,-0.5,1730147509187796992,,,,,,,,,,,,,,0.99924684,-0.00208170,-0.00271747,0.03865192,-55.53098679,0.00613893,0.00080283,0.00068903,0.15881775,0.00280488,0.00036945,-0.00156301,-0.08168296,0.04015416,-9.81839275,-0.03014219,-0.00258852,-0.03845882,0.05154077,-0.04274267,9.77993393,0.43334198,0.00000000
S,-0.5,1730147509183975168,,-0.00423558,0.00517858,-0.99887443,-0.00339235,0.00305263,0.00375757,-0.00000467,0.00000534,-0.00099791,-0.00000300,0.00000311,0.00000427,,,,,,,,,,,,,,,,,,,,,,,
S,-0.5,1730147509184977920,,-0.00404583,0.00300232,-0.99964392,-0.00273519,0.00496266,0.00501583,-0.00000294,0.00000351,-0.00099958,-0.00000326,0.00000422,0.00000394,,,,,,,,,,,,,,,,,,,,,,,
S,-0.5,1730147509189794816,,,,,,,,,,,,,,0.99924684,-0.00208170,-0.00271747,0.03865192,-55.53098679,0.00613893,0.00080283,0.00068903,0.15881775,-0.00169829,0.00300549,0.00439346,-0.08051711,0.04599183,-9.80009365,-0.02897635,0.00324916,-0.02015972,0.05154077,-0.04274267,9.77993393,0.43334198,0.00000000
S,-0.5,1730147509185985536,,-0.00518237,0.00146439,-1.00163579,-0.00493340,0.00157366,0.00631247,-0.00000492,0.00000105,-0.00100152,-0.00000432,0.00000280,0.00000648,,,,,,,,,,,,,,,,,,,,,,,
S,-0.5,1730147509186992384,,-0.00447536,-0.00137986,-0.99988276,-0.00508425,0.00276605,0.00470257,-0.00000497,-0.00000135,-0.00100084,-0.00000576,0.00000147,0.00000541,,,,,,,,,,,,,,,,,,,,,,,
S,-0.5,1730147509191797248,,,,,,,,,,,,,,0.99924684,-0.00208170,-0.00271747,0.03865192,-55.53098679,0.00613893,0.00080283,0.00068903,0.15881775,-0.00152457,0.00177399,0.00078576,-0.02879991,0.03438227,-9.80254364,0.02274086,-0.00836041,-0.02260971,0.05154077,-0.04274267,9.77993393,0.43334198,0.00000000
S,-0.5,1730147509187998464,,-0.00353033,0.00153099,-0.99936104,0.00250092,0.00240466,0.00422174,-0.00000348,0.00000010,-0.00099890,0.00000107,0.00000285,0.00000380,,,,,,,,,,,,,,,,,,,,,,,
S,-0.5,1730147509189003520,,-0.00293634,0.00341985,-0.99810517,0.00182427,0.00063897,0.00297619,-0.00000274,0.00000400,-0.00099817,0.00000436,0.00000084,0.00000305,,,,,,,,,,,,,,,,,,,,,,,
S,-0.5,1730147509193797888,,,,,,,,,,,,,,0.99924684,-0.00208170,-0.00271747,0.03865192,-55.53098679,0.00613893,0.00080283,0.00068903,0.15881775,-0.00402335,-0.00097480,0.00225018,-0.04869681,-0.01326360,-9.81484127,0.00284396,-0.05600627,-0.03490734,0.05154077,-0.04274267,9.77993393,0.43334198,0.00000000
S,-0.5,1730147509190008064,,-0.00301773,0.00381526,-0.99939221,-0.00063125,0.00241271,0.00503306,-0.00000281,0.00000435,-0.00099876,-0.00000040,0.00000153,0.00000426,,,,,,,,,,,,,,,,,,,,,,,
S,-0.5,1730147509191011584,,-0.00249662,0.00191495,-0.99810827,-0.00161381,0.00423234,0.00388008,-0.00000262,0.00000239,-0.00099875,-0.00000222,0.00000447,0.00000474,,,,,,,,,,,,,,,,,,,,,,,
S,-0.5,1730147509195796992,,,,,,,,,,,,,,0.99924684,-0.00208170,-0.00271747,0.03865192,-55.53098679,0.00613893,0.00080283,0.00068903,0.15881775,0.00609485,-0.00160071,-0.00010818,-0.02690570,0.03925543,-9.78867722,0.02463507,-0.00348725,-0.00874329,0.05154077,-0.04274267,9.77993393,0.43334198,0.00000000
S,-0.5,1730147509192014592,,-0.00156520,0.00370307,-0.99800336,-0.00386443,0.00516159,0.00327194,-0.00000157,0.00000277,-0.00099761,-0.00000377,0.00000557,0.00000302,,,,,,,,,,,,,,,,,,,,,,,
S,-0.5,1730147509193016576,,-0.00396137,0.00304672,-0.99726349,-0.00274348,0.00414246,0.00449419,-0.00000323,0.00000374,-0.00099736,-0.00000366,0.00000462,0.00000408,,,,,,,,,,,,,,,,,,,,,,,
S,-0.5,1730147509197794304,,,,,,,,,,,,,,0.99924684,-0.00208170,-0.00271747,0.03865192,-55.53098679,0.00613893,0.00080283,0.00068903,0.15881775,-0.00048370,0.00202088,0.00158666,-0.02566364,0.02340100,-9.79440498,0.02587713,-0.01934167,-0.01447105,0.05154077,-0.04274267,9.77993393,0.43334198,0.00000000
S,-0.5,1730147509194017792,,-0.00788841,0.00185633,-0.99732286,-0.00275041,0.00034452,0.00365565,-0.00000794,0.00000186,-0.00099708,-0.00000239,0.00000071,0.00000420,,,,,,,,,,,,,,,,,,,,,,,
S,-0.5,1730147509195018240,,-0.00793664,0.00126470,-0.99803907,-0.00476432,-0.00029429,0.00243836,-0.00000918,0.00000099,-0.00099793,-0.00000440,-0.00000139,0.00000239,,,,,,,,,,,,,,,,,,,,,,,
S,-0.5,1730147509199789824,,,,,,,,,,,,,,0.99924684,-0.00208170,-0.00271747,0.03865192,-55.53098679,0.00613893,0.00080283,0.00068903,0.15881775,-0.00193034,0.00217796,0.00092092,-0.03167166,0.03662921,-9.78080463,0.01986910,-0.00611346,-0.00087070,0.05154077,-0.04274267,9.77993393,0.43334198,0.00000000
S,-0.5,1730147509196017664,,-0.00779101,0.00291608,-0.99753296,-0.00365530,0.00268076,0.00099332,-0.00000783,0.00000243,-0.00099785,-0.00000450,0.00000194,0.00000087,,,,,,,,,,,,,,,,,,,,,,,
S,-0.5,1730147509197020160,,-0.00616994,0.00389757,-0.99867839,-0.00101803,0.00259408,0.00303288,-0.00000642,0.00000424,-0.00099831,-0.00000114,0.00000356,0.00000220,,,,,,,,,,,,,,,,,,,,,,,
S,-0.5,1730147509201788160,,,,,,,,,,,,,,0.99924684,-0.00208170,-0.00271747,0.03865192,-55.53098679,0.00613893,0.00080283,0.00068903,0.15881775,-0.00266742,-0.00383260,-0.00076501,-0.09000610,0.00974238,-9.78632832,-0.03846533,-0.03300029,-0.00639439,0.05154077,-0.04274267,9.77993393,0.43334198,0.00000000
S,-0.5,1730147509198021888,,-0.00393708,0.00424935,-0.99966770,0.00178998,0.00269787,0.00121239,-0.00000383,0.00000450,-0.00099985,0.00000212,0.00000265,0.00000219,,,,,,,,,,,,,,,,,,,,,,,
S,-0.5,1730147509199028480,,-0.00386650,0.00587044,-1.00043571,0.00142760,0.00362245,0.00580978,-0.00000317,0.00000569,-0.00100061,0.00000239,0.00000349,0.00000440,,,,,,,,,,,,,,,,,,,,,,,
S,-0.5,1730147509203790592,,,,,,,,,,,,,,0.99924684,-0.00208170,-0.00271747,0.03865192,-55.53098679,0.00613893,0.00080283,0.00068903,0.15881775,0.00058902,0.00111136,-0.00095528,-0.06293886,0.04162546,-9.79006863,-0.01139810,-0.00111722,-0.01013470,0.05154077,-0.04274267,9.77993393,0.43334198,0.00000000
S,-0.5,1730147509200034304,,-0.00337683,0.00437755,-1.00035107,0.00039697,0.00537435,0.00442656,-0.00000344,0.00000516,-0.00100061,0.00000047,0.00000535,0.00000614,,,,,,,,,,,,,,,,,,,,,,,
S,-0.5,1730147509201039104,,-0.00599981,0.00361679,-0.99931151,-0.00083431,0.00369589,0.00754963,-0.00000537,0.00000328,-0.00099947,-0.00000094,0.00000456,0.00000654,,,,,,,,,,,,,,,,,,,,,,,
S,-0.5,1730147509205791232,,,,,,,,,,,,,,0.99924684,-0.00208170,-0.00271747,0.03865192,-55.53098679,0.00613893,0.00080283,0.00068903,0.15881775,0.00412046,0.00104205,0.00123738,-0.03107246,0.05577885,-9.81264210,0.02046830,0.01303617,-0.03270817,0.05154077,-0.04274267,9.77993393,0.43334198,0.00000000
S,-0.5,1730147509202043392,,-0.00810790,0.00372148,-0.99791646,-0.00613105,0.00276989,0.00371888,-0.00000856,0.00000346,-0.00099784,-0.00000556,0.00000240,0.00000541,,,,,,,,,,,,,,,,,,,,,,,
S,-0.5,1730147509203046656,,-0.00898352,0.00451959,-0.99739403,-0.00124476,0.00427814,0.00091707,-0.00000950,0.00000441,-0.00099704,-0.00000382,0.00000371,0.00000021,,,,,,,,,,,,,,,,,,,,,,,
S,-0.5,1730147509207789568,,,,,,,,,,,,,,0.99924684,-0.00208170,-0.00271747,0.03865192,-55.53098679,0.00613893,0.00080283,0.00068903,0.15881775,0.00079455,0.00211305,0.00338428,-0.05263657,0.03216510,-9.80148602,-0.00109580,-0.01057757,-0.02155209,0.05154077,-0.04274267,9.77993393,0.43334198,0.00000000
S,-0.5,1730147509204049408,,-0.00767789,0.00502133,-0.99795902,0.00174719,0.00130628,0.00185005,-0.00000819,0.00000518,-0.00099769,0.00000276,0.00000233,0.00000079,,,,,,,,,,,,,,,,,,,,,,,
S,-0.5,1730147509205051136,,-0.00798830,0.00332689,-0.99863082,0.00173266,-0.00036517,0.00360115,-0.00000752,0.00000379,-0.00099869,0.00000269,-0.00000101,0.00000358,,,,,,,,,,,,,,,,,,,,,,,
S,-0.5,1730147509209786368,,,,,,,,,,,,,,0.99924684,-0.00208170,-0.00271747,0.03865192,-55.53098679,0.00613893,0.00080283,0.00068903,0.15881775,-0.00208535,0.00126390,-0.00295086,-0.09311761,0.04322536,-9.77766991,-0.04157684,0.00048269,0.00226402,0.05154077,-0.04274267,9.77993393,0.43334198,0.00000000
S,-0.5,1730147509206052096,,-0.00741966,0.00380184,-0.99949419,0.00021353,0.00488795,0.00552865,-0.00000762,0.00000318,-0.00099955,0.00000048,0.00000340,0.00000574,,,,,,,,,,,,,,,,,,,,,,,
S,-0.5,1730147509207052288,,-0.00644680,0.00466085,-1.00158691,-0.00007741,0.00721941,0.00717506,-0.00000644,0.00000466,-0.00100148,-0.00000051,0.00000847,0.00000749,,,,,,,,,,,,,,,,,,,,,,,
S,-0.5,1730147509211781632,,,,,,,,,,,,,,0.99924684,-0.00208170,-0.00271747,0.03865192,-55.53098679,0.00613893,0.00080283,0.00068903,0.15881775,0.00442086,-0.00345291,0.00042234,-0.07371253,0.03721103,-9.79378986,-0.02217176,-0.00553164,-0.01385593,0.05154077,-0.04274267,9.77993393,0.43334198,0.00000000
S,-0.5,1730147509208051712,,-0.00490277,0.00497084,-0.99898481,-0.00334388,0.00793837,0.00431466,-0.00000487,0.00000519,-0.00100012,-0.00000284,0.00000855,0.00000536,,,,,,,,,,,,,,,,,,,,,,,
S,-0.5,1730147509209054464,,-0.00523881,0.00435261,-0.99926794,-0.00623395,0.01021534,0.00272298,-0.00000469,0.00000456,-0.00099839,-0.00000675,0.00001003,0.00000210,,,,,,,,,,,,,,,,,,,,,,,
S,-0.5,1730147509213779968,,,,,,,,,,,,,,0.99924684,-0.00208170,-0.00271747,0.03865192,-55.53098679,0.00613893,0.00080283,0.00068903,0.15881775,0.00122510,0.00602247,0.00433184,-0.06317571,0.04566020,-9.82117844,-0.01163494,0.00291753,-0.04124451,0.05154077,-0.04274267,9.77993393,0.43334198,0.00000000
S,-0.5,1730147509210056448,,-0.00835421,0.00214327,-0.99772871,-0.00373049,0.00476216,-0.00191953,-0.00000790,0.00000235,-0.00099810,-0.00000511,0.00000648,-0.00000158,,,,,,,,,,,,,,,,,,,,,,,
S,-0.5,1730147509211057408,,-0.00921670,0.00182862,-0.99803191,-0.00110752,0.00207034,0.00124183,-0.00001005,0.00000118,-0.00099749,-0.00000079,0.00000082,-0.00000081,,,,,,,,,,,,,,,,,,,,,,,
S,-0.5,1730147509215781888,,,,,,,,,,,,,,0.99924684,-0.00208170,-0.00271747,0.03865192,-55.53098679,0.00613893,0.00080283,0.00068903,0.15881775,-0.00501540,0.00758503,-0.00105594,-0.04595548,0.04475689,-9.79084396,0.00558528,0.00201422,-0.01091003,0.05154077,-0.04274267,9.77993393,0.43334198,0.00000000
S,-0.5,1730147509212063232,,-0.00482054,0.00520802,-0.99940979,-0.00060293,0.00284776,0.00329488,-0.00000589,0.00000449,-0.00099926,0.00000014,0.00000185,0.00000393,,,,,,,,,,,,,,,,,,,,,,,
S,-0.5,1730147509213068288,,-0.00625942,0.00517331,-1.00116956,0.00026393,0.00507068,0.00328255,-0.00000460,0.00000626,-0.00100129,0.00000027,0.00000491,0.00000394,,,,,,,,,,,,,,,,,,,,,,,
S,-0.5,1730147509217782272,,,,,,,,,,,,,,0.99924684,-0.00208170,-0.00271747,0.03865192,-55.53098679,0.00613893,0.00080283,0.00068903,0.15881775,0.00094599,-0.00162184,-0.00396794,-0.09857763,0.01159322,-9.78200436,-0.04703687,-0.03114945,-0.00207043,0.05154077,-0.04274267,9.77993393,0.43334198,0.00000000
S,-0.5,1730147509214072832,,-0.00751236,0.00448351,-0.99934703,-0.00011198,-0.00507420,0.00633976,-0.00000774,0.00000460,-0.00100024,0.00000023,-0.00000252,0.00000578,,,,,,,,,,,,,,,,,,,,,,,
S,-0.5,1730147509215076352,,-0.00572421,0.00499974,-0.99936002,-0.00236701,-0.00386105,0.00689926,-0.00000645,0.00000469,-0.00099878,-0.00000208,-0.00000731,0.00000777,,,,,,,,,,,,,,,,,,,,,,,
S,-0.5,1730147509219781120,,,,,,,,,,,,,,0.99924684,-0.00208170,-0.00271747,0.03865192,-55.53098679,0.00613893,0.00080283,0.00068903,0.15881775,0.00200024,0.00246881,0.00078067,-0.04509487,0.06134359,-9.81928444,0.00644590,0.01860091,-0.03935051,0.05154077,-0.04274267,9.77993393,0.43334198,0.00000000
S,-0.5,1730147509216079104,,-0.00505820,0.00568945,-0.99943709,-0.00339514,-0.00370357,0.00385582,-0.00000461,0.00000573,-0.00099943,-0.00000393,-0.00000335,0.00000459,,,,,,,,,,,,,,,,,,,,,,,
S,-0.5,1730147509217081088,,-0.00560989,0.00490210,-1.00066543,-0.00132497,0.00092174,0.00414997,-0.00000530,0.00000526,-0.00100047,-0.00000203,0.00000013,0.00000313,,,,,,,,,,,,,,,,,,,,,,,
S,-0.5,1730147509221778176,,,,,,,,,,,,,,0.99924684,-0.00208170,-0.00271747,0.03865192,-55.65781784,0.00613893,0.00080283,0.00068903,0.15881775,-0.00034374,-0.00975613,0.00461311,-0.06323645,0.04595952,-9.79466152,-0.01169569,0.00321685,-0.01472759,0.05154077,-0.04274267,9.77993393,0.30651093,0.00000000
S,-0.5,1730147509218082304,,-0.00610968,0.00328477,-0.99766803,-0.00076295,0.00096173,0.00148594,-0.00000619,0.00000333,-0.00099860,-0.00000021,0.00000243,0.00000206,,,,,,,,,,,,,,,,,,,,,,,
S,-0.5,1730147509219082496,,-0.00741789,0.00298327,-0.99568677,0.00156769,0.00018939,0.00060497,-0.00000734,0.00000252,-0.00099509,0.00000132,0.00000034,-0.00000008,,,,,,,,,,,,,,,,,,,,,,,
S,-0.5,1730147509223773952,,,,,,,,,,,,,,0.99924684,-0.00208170,-0.00271747,0.03865192,-55.65781784,0.00613893,0.00080283,0.00068903,0.15881775,-0.00029516,-0.00231395,-0.00002985,-0.05194943,0.05162748,-9.81122875,-0.00040866,0.00888481,-0.03129482,0.05154077,-0.04274267,9.77993393,0.30651093,0.00000000
S,-0.5,1730147509220086016,,-0.00813622,0.00404513,-0.99713498,0.00136136,0.00285705,0.00484223,-0.00000842,0.00000376,-0.00099624,0.00000214,0.00000213,0.00000379,,,,,,,,,,,,,,,,,,,,,,,
S,-0.5,1730147509221088512,,-0.00519163,0.00388751,-0.99951476,-0.00271070,0.00450189,0.00095497,-0.00000596,0.00000425,-0.00099954,-0.00000204,0.00000505,0.00000301,,,,,,,,,,,,,,,,,,,,,,,
S,-0.5,1730147509225772288,,,,,,,,,,,,,,0.99924684,-0.00208170,-0.00271747,0.03865192,-55.65781784,0.00613893,0.00080283,0.00068903,0.15881775,0.00305633,-0.00210301,-0.00324058,-0.07197560,0.02474323,-9.75852489,-0.02043484,-0.01799944,0.02140903,0.05154077,-0.04274267,9.77993393,0.30651093,0.00000000
S,-0.5,1730147509222090240,,-0.00559691,0.00444802,-1.00117052,-0.00209199,0.00077297,-0.00041225,-0.00000459,0.00000430,-0.00100163,-0.00000350,0.00000197,-0.00000140,,,,,,,,,,,,,,,,,,,,,,,
S,-0.5,1730147509223090944,,-0.00395394,0.00321592,-1.00116706,0.00063750,-0.00031024,0.00304609,-0.00000438,0.00000362,-0.00100169,0.00000034,-0.00000130,0.00000198,,,,,,,,,,,,,,,,,,,,,,,
S,-0.5,1730147509227769600,,,,,,,,,,,,,,0.99924684,-0.00208170,-0.00271747,0.03865192,-55.65781784,0.00613893,0.00080283,0.00068903,0.15881775,-0.00030332,0.00260673,-0.00014762,-0.05839897,0.04172237,-9.80217171,-0.00685821,-0.00102030,-0.02223778,0.05154077,-0.04274267,9.77993393,0.30651093,0.00000000
S,-0.5,1730147509224096512,,-0.00443492,0.00239402,-0.99750048,-0.00009216,0.00009440,0.00146248,-0.00000382,0.00000215,-0.00099817,0.00000091,-0.00000032,0.00000285,,,,,,,,,,,,,,,,,,,,,,,
S,-0.5,1730147509225101056,,-0.00529905,0.00339606,-0.99853742,-0.00199602,0.00279327,0.00330474,-0.00000529,0.00000295,-0.00099718,-0.00000188,0.00000243,0.00000247,,,,,,,,,,,,,,,,,,,,,,,
S,-0.5,1730147509229769984,,,,,,,,,,,,,,0.99924684,-0.00208170,-0.00271747,0.03865192,-55.65781784,0.00613893,0.00080283,0.00068903,0.15881775,0.00207172,-0.00374583,-0.00117508,-0.04297011,0.03547924,-9.82326889,0.00857066,-0.00726344,-0.04333496,0.05154077,-0.04274267,9.77993393,0.30651093,0.00000000
S,-0.5,1730147509226105344,,-0.00609780,0.00402470,-0.99873400,-0.00360279,0.00557215,0.00288813,-0.00000623,0.00000423,-0.00099903,-0.00000392,0.00000593,0.00000355,,,,,,,,,,,,,,,,,,,,,,,
S,-0.5,1730147509227108608,,-0.00501515,0.00154453,-0.99846578,-0.00398482,0.00395122,0.00581426,-0.00000547,0.00000220,-0.00099858,-0.00000443,0.00000513,0.00000515,,,,,,,,,,,,,,,,,,,,,,,
S,-0.5,1730147509231768832,,,,,,,,,,,,,,0.99924684,-0.00208170,-0.00271747,0.03865192,-55.65781784,0.00613893,0.00080283,0.00068903,0.15881775,-0.00014916,-0.00001374,-0.00069168,-0.05192538,0.02895528,-9.77901459,-0.00038461,-0.01378739,0.00091934,0.05154077,-0.04274267,9.77993393,0.30651093,0.00000000
S,-0.5,1730147509228111360,,-0.00474183,0.00168288,-0.99963027,-0.00572096,0.00056974,0.00580557,-0.00000445,0.00000087,-0.00099933,-0.00000553,0.00000067,0.00000674,,,,,,,,,,,,,,,,,,,,,,,
S,-0.5,1730147509229113088,,-0.00656485,0.00330929,-1.00117922,-0.00457697,0.00403317,0.00149360,-0.00000615,0.00000306,-0.00100127,-0.00000534,0.00000233,0.00000227,,,,,,,,,,,,,,,,,,,,,,,
S,-0.5,1730147509233766144,,,,,,,,,,,,,,0.99924684,-0.00208170,-0.00271747,0.03865192,-55.65781784,0.00613893,0.00080283,0.00068903,0.15881775,-0.00269366,0.00268482,0.00199238,-0.05360486,0.02152851,-9.79269695,-0.00206410,-0.02121417,-0.01276302,0.05154077,-0.04274267,9.77993393,0.30651093,0.00000000
S,-0.5,1730147509230114048,,-0.00875067,0.00316738,-1.00149429,-0.00149192,0.00385422,0.00151788,-0.00000893,0.00000371,-0.00100193,-0.00000169,0.00000499,0.00000014,,,,,,,,,,,,,,,,,,,,,,,
S,-0.5,1730147509231113984,,-0.00920354,0.00360218,-1.00071752,-0.00196543,0.00079636,0.00054224,-0.00000982,0.00000348,-0.00100096,-0.00000090,0.00000129,0.00000073,,,,,,,,,,,,,,,,,,,,,,,
S,-0.5,1730147509235761664,,,,,,,,,,,,,,0.99924684,-0.00208170,-0.00271747,0.03865192,-55.65781784,0.00613893,0.00080283,0.00068903,0.15881775,-0.00360425,-0.00011791,-0.00088335,-0.06027645,0.02998682,-9.81908798,-0.00873568,-0.01275586,-0.03915405,0.05154077,-0.04274267,9.77993393,0.30651093,0.00000000
S,-0.5,1730147509232112896,,-0.00672028,0.00604942,-1.00060749,-0.00372685,0.00086012,0.00114880,-0.00000732,0.00000574,-0.00100038,-0.00000356,-0.00000012,0.00000073,,,,,,,,,,,,,,,,,,,,,,,
S,-0.5,1730147509233115392,,-0.00639211,0.00676951,-0.99913204,-0.00330412,0.00281013,0.00236742,-0.00000566,0.00000742,-0.00099937,-0.00000394,0.00000248,0.00000234,,,,,,,,,,,,,,,,,,,,,,,
S,-0.5,1730147509237759488,,,,,,,,,,,,,,0.99924684,-0.00208170,-0.00271747,0.03865192,-55.65781784,0.00613893,0.00080283,0.00068903,0.15881775,0.00083581,-0.00115047,-0.00243039,-0.09627517,0.03410702,-9.81605339,-0.04473441,-0.00863566,-0.03611946,0.05154077,-0.04274267,9.77993393,0.30651093,0.00000000
S,-0.5,1730147509234117376,,-0.00816053,0.00324090,-0.99880850,-0.00219692,0.00455157,0.00104827,-0.00000773,0.00000411,-0.00099840,-0.00000226,0.00000486,0.00000168,,,,,,,,,,,,,,,,,,,,,,,
S,-0.5,1730147509235118336,,-0.00676250,0.00142987,-0.99980980,-0.00196465,0.00496173,0.00183993,-0.00000758,0.00000064,-0.00099952,-0.00000165,0.00000544,0.00000128,,,,,,,,,,,,,,,,,,,,,,,
S,-0.5,1730147509239755776,,,,,,,,,,,,,,0.99924684,-0.00208170,-0.00271747,0.03865192,-55.65781784,0.00613893,0.00080283,0.00068903,0.15881775,-0.00220840,0.00003068,-0.00081855,-0.05551615,0.07274269,-9.80042362,-0.00397538,0.03000001,-0.02048969,0.05154077,-0.04274267,9.77993393,0.30651093,0.00000000
S,-0.5,1730147509236118272,,-0.00551102,0.00327596,-1.00031805,-0.00347088,0.00751896,-0.00199915,-0.00000529,0.00000236,-0.00100054,-0.00000312,0.00000718,-0.00000105,,,,,,,,,,,,,,,,,,,,,,,
S,-0.5,1730147509237122816,,-0.00461748,0.00359689,-0.99759394,-0.00478577,0.00403729,0.00538043,-0.00000438,0.00000413,-0.00099825,-0.00000503,0.00000548,0.00000282,,,,,,,,,,,,,,,,,,,,,,,
S,-0.5,1730147509241755648,,,,,,,,,,,,,,0.99924684,-0.00208170,-0.00271747,0.03865192,-55.65781784,0.00613893,0.00080283,0.00068903,0.15881775,0.00007878,0.00299607,-0.00188143,-0.07432816,0.00623379,-9.80199051,-0.02278740,-0.03650888,-0.02205658,0.05154077,-0.04274267,9.77993393,0.30651093,0.00000000
S,-0.5,1730147509238126592,,-0.00761329,0.00252328,-0.99950731,-0.00066634,0.00538146,0.00246165,-0.00000678,0.00000282,-0.00099829,-0.00000183,0.00000403,0.00000534,,,,,,,,,,,,,,,,,,,,,,,
S,-0.5,1730147509239129344,,-0.00858442,0.00394389,-1.00096953,0.00352624,-0.00091123,-0.00049685,-0.00000936,0.00000334,-0.00100131,0.00000408,0.00000066,-0.00000089,,,,,,,,,,,,,,,,,,,,,,,
S,-0.5,1730147509243754752,,,,,,,,,,,,,,0.99924684,-0.00208170,-0.00271747,0.03865192,-55.65781784,0.00613893,0.00080283,0.00068903,0.15881775,-0.00329311,0.00303842,-0.00034001,-0.04296885,0.04046586,-9.78949642,0.00857192,-0.00227682,-0.00956249,0.05154077,-0.04274267,9.77993393,0.30651093,0.00000000
S,-0.5,1730147509240132352,,-0.00622563,0.00455479,-1.00292015,0.00280973,-0.00032033,-0.00236432,-0.00000696,0.00000490,-0.00100303,0.00000427,-0.00000243,-0.00000297,,,,,,,,,,,,,,,,,,,,,,,
S,-0.5,1730147509241134336,,-0.00422679,0.00448441,-1.00321722,0.00204739,-0.00194115,0.00269269,-0.00000384,0.00000469,-0.00100378,0.00000196,-0.00000146,0.00000118,,,,,,,,,,,,,,,,,,,,,,,
S,-0.5,1730147509245752320,,,,,,,,,,,,,,0.99924684,-0.00208170,-0.00271747,0.03865192,-55.65781784,0.00614298,0.00080384,0.00069071,0.15881769,0.00580894,-0.00178550,-0.00404602,-0.09180848,0.03278896,-9.81952477,-0.04026771,-0.00995371,-0.03959084,0.05154077,-0.04274267,9.77993393,0.30651093,0.00000000
S,-0.5,1730147509242135552,,-0.00576484,0.00278495,-1.00063777,-0.00013917,0.00209249,0.00206907,-0.00000485,0.00000307,-0.00100120,0.00000002,0.00000084,0.00000379,,,,,,,,,,,,,,,,,,,,,,,
S,-0.5,1730147509243135744,,-0.00585198,0.00353311,-1.00253582,0.00044414,0.00104827,0.00311987,-0.00000633,0.00000286,-0.00100137,-0.00000036,0.00000252,0.00000273,,,,,,,,,,,,,,,,,,,,,,,
S,-0.5,1730147509247747840,,,,,,,,,,,,,,0.99924684,-0.00208170,-0.00271747,0.03865192,-55.65781784,0.00614298,0.00080384,0.00069071,0.15881769,0.00369103,-0.00390403,-0.00197818,-0.03764821,0.04601132,-9.84376049,0.01389256,0.00326865,-0.06382656,0.05154077,-0.04274267,9.77993393,0.30651093,0.00000000
S,-0.5,1730147509244134912,,-0.00365771,0.00367429,-1.00262415,-0.00166545,0.00382963,0.00248372,-0.00000408,0.00000389,-0.00100321,-0.00000110,0.00000299,0.00000293,,,,,,,,,,,,,,,,,,,,,,,
S,-0.5,1730147509245137408,,-0.00405681,0.00334599,-1.00174546,-0.00039508,0.00183390,0.00042879,-0.00000329,0.00000345,-0.00100193,-0.00000130,0.00000308,0.00000060,,,,,,,,,,,,,,,,,,,,,,,
S,-0.5,1730147509249745920,,,,,,,,,,,,,,0.99924684,-0.00208170,-0.00271747,0.03865192,-55.65781784,0.00614298,0.00080384,0.00069071,0.15881769,0.00137536,0.00007649,-0.00042718,-0.06203280,0.02801025,-9.82008553,-0.01049203,-0.01473242,-0.04015160,0.05154077,-0.04274267,9.77993393,0.30651093,0.00000000
S,-0.5,1730147509246139136,,-0.00338973,0.00486293,-1.00080287,0.00090191,0.00259224,0.00273085,-0.00000364,0.00000448,-0.00100069,0.00000107,0.00000182,0.00000166,,,,,,,,,,,,,,,,,,,,,,,
S,-0.5,1730147509247140096,,-0.00514808,0.00649227,-1.00308633,0.00445778,0.00146673,0.00230976,-0.00000462,0.00000668,-0.00100237,0.00000422,0.00000191,0.00000312,,,,,,,,,,,,,,,,,,,,,,,
S,-0.5,1730147509251742208,,,,,,,,,,,,,,0.99924684,-0.00208170,-0.00271747,0.03865192,-55.65781784,0.00614298,0.00080384,0.00069071,0.15881769,0.00043580,0.00063639,-0.00255797,-0.03222300,0.03383879,-9.82560730,0.01931776,-0.00890389,-0.04567337,0.05154077,-0.04274267,9.77993393,0.30651093,0.00000000
S,-0.5,1730147509248140288,,-0.00624887,0.00689611,-1.00241923,-0.00156670,0.00191959,0.00510009,-0.00000661,0.00000734,-0.00100327,0.00000066,0.00000148,0.00000446,,,,,,,,,,,,,,,,,,,,,,,
S,-0.5,1730147509249139712,,-0.00833528,0.00456571,-1.00197983,-0.00191573,0.00231781,0.00186104,-0.00000831,0.00000512,-0.00100185,-0.00000377,0.00000239,0.00000334,,,,,,,,,,,,,,,,,,,,,,,
S,-0.5,1730147509253742080,,,,,,,,,,,,,,0.99924684,-0.00208170,-0.00271747,0.03865192,-55.65781784,0.00614298,0.00080384,0.00069071,0.15881769,0.00595776,-0.00053284,-0.00003858,-0.04527004,0.06549689,-9.82990551,0.00627072,0.02275422,-0.04997158,0.05154077,-0.04274267,9.77993393,0.30651093,0.00000000
S,-0.5,1730147509250143488,,-0.00637219,0.00392700,-1.00008631,0.00019608,0.00356477,0.00443180,-0.00000739,0.00000330,-0.00100029,-0.00000030,0.00000346,0.00000293,,,,,,,,,,,,,,,,,,,,,,,
S,-0.5,1730147509251146240,,-0.00628626,0.00241947,-0.99792236,-0.00084794,-0.00075985,0.00558375,-0.00000568,0.00000249,-0.00099771,0.00000001,0.00000042,0.00000619,,,,,,,,,,,,,,,,,,,,,,,
S,-0.5,1730147509255740160,,,,,,,,,,,,,,0.99924684,-0.00208170,-0.00271747,0.03865192,-55.65781784,0.00614298,0.00080384,0.00069071,0.15881769,-0.00203676,-0.00005585,0.00018011,-0.08145905,0.05019079,-9.82476521,-0.02991829,0.00744812,-0.04483128,0.05154077,-0.04274267,9.77993393,0.30651093,0.00000000
S,-0.5,1730147509252148224,,-0.00429384,0.00261416,-0.99777400,-0.00032954,0.00178332,0.00751004,-0.00000463,0.00000210,-0.00099711,-0.00000076,-0.00000006,0.00000753,,,,,,,,,,,,,,,,,,,,,,,
S,-0.5,1730147509253149440,,-0.00321774,0.00347790,-0.99841613,-0.00022805,0.00388661,0.00598149,-0.00000278,0.00000338,-0.00099825,-0.00000008,0.00000431,0.00000687,,,,,,,,,,,,,,,,,,,,,,,
S,-0.5,1730147509257736960,,,,,,,,,,,,,,0.99924684,-0.00208170,-0.00271747,0.03865192,-55.65781784,0.00614298,0.00080384,0.00069071,0.15881769,0.00174717,-0.00202264,0.00303512,-0.05567480,0.02441898,-9.78422070,-0.00413404,-0.01832369,-0.00428677,0.05154077,-0.04274267,9.77993393,0.30651093,0.00000000
S,-0.5,1730147509254149888,,-0.00447527,0.00316704,-1.00052822,-0.00328130,0.00541217,0.00539585,-0.00000390,0.00000350,-0.00100035,-0.00000269,0.00000580,0.00000502,,,,,,,,,,,,,,,,,,,,,,,
S,-0.5,1730147509255149312,,-0.00435663,0.00293105,-1.00155735,-0.00323380,-0.00432850,0.00839066,-0.00000478,0.00000288,-0.00100204,-0.00000421,-0.00000207,0.00000766,,,,,,,,,,,,,,,,,,,,,,,
S,-0.5,1730147509259731968,,,,,,,,,,,,,,0.99924684,-0.00208170,-0.00271747,0.03865192,-55.65781784,0.00614298,0.00080384,0.00069071,0.15881769,0.00165172,0.00186853,0.00371474,-0.02724963,0.03317472,-9.78951073,0.02429114,-0.00956795,-0.00957680,0.05154077,-0.04274267,9.77993393,0.30651093,0.00000000
S,-0.5,1730147509256147968,,-0.00585745,0.00439798,-0.99797678,0.00201486,-0.00203848,0.00817964,-0.00000555,0.00000406,-0.00099895,0.00000108,-0.00000556,0.00000917,,,,,,,,,,,,,,,,,,,,,,,
S,-0.5,1730147509257150464,,-0.00620315,0.00497933,-0.99891454,0.00103605,-0.00215000,0.00280108,-0.00000662,0.00000534,-0.00099760,0.00000288,-0.00000140,0.00000371,,,,,,,,,,,,,,,,,,,,,,,
S,-0.5,1730147509261729792,,,,,,,,,,,,,,0.99924684,-0.00208170,-0.00271747,0.03865192,-56.18628311,0.00614298,0.00080384,0.00069071,0.15881769,-0.00248111,-0.00451857,0.00450249,-0.04686721,0.02819515,-9.82668114,0.00467356,-0.01454752,-0.04674721,0.05154077,-0.04274267,9.77993393,-0.22195435,0.00000000
S,-0.5,1730147509258151936,,-0.00703831,0.00696579,-1.00138927,-0.00059847,0.00109359,0.00161902,-0.00000700,0.00000679,-0.00100124,-0.00000061,0.00000047,0.00000012,,,,,,,,,,,,,,,,,,,,,,,
S,-0.5,1730147509259152896,,-0.00571381,0.00597106,-1.00230515,-0.00318854,0.00396262,0.00108854,-0.00000622,0.00000678,-0.00100293,-0.00000324,0.00000447,0.00000081,,,,,,,,,,,,,,,,,,,,,,,
S,-0.5,1730147509263726336,,,,,,,,,,,,,,0.99924684,-0.00208170,-0.00271747,0.03865192,-56.18628311,0.00614298,0.00080384,0.00069071,0.15881769,0.00461779,-0.00384625,0.00055352,-0.06489769,0.05237233,-9.78315735,-0.01335693,0.00962965,-0.00322342,0.05154077,-0.04274267,9.77993393,-0.22195435,0.00000000
S,-0.5,1730147509260153600,,-0.00538111,0.00586478,-0.99960399,-0.00427940,0.00043253,0.00420909,-0.00000502,0.00000557,-0.00100039,-0.00000491,0.00000199,0.00000347,,,,,,,,,,,,,,,,,,,,,,,
S,-0.5,1730147509261153280,,-0.00518169,0.00559885,-0.99705344,-0.00447473,-0.00298994,0.00329609,-0.00000511,0.00000561,-0.00099666,-0.00000479,-0.00000349,0.00000446,,,,,,,,,,,,,,,,,,,,,,,
S,-0.5,1730147509265726464,,,,,,,,,,,,,,0.99924684,-0.00208170,-0.00271747,0.03865192,-56.18628311,0.00614298,0.00080384,0.00069071,0.15881769,-0.00150503,0.00202836,-0.00234896,-0.06099698,0.06653144,-9.83534908,-0.00945621,0.02378877,-0.05541515,0.05154077,-0.04274267,9.77993393,-0.22195435,0.00000000
S,-0.5,1730147509262157056,,-0.00574366,0.00358775,-0.99779195,-0.00182823,0.00158446,-0.00177470,-0.00000558,0.00000387,-0.00099685,-0.00000237,-0.00000034,-0.00000114,,,,,,,,,,,,,,,,,,,,,,,
S,-0.5,1730147509263159808,,-0.00693987,0.00429030,-0.99916136,0.00055784,0.00181745,0.00301189,-0.00000690,0.00000352,-0.00099915,0.00000097,0.00000323,0.00000053,,,,,,,,,,,,,,,,,,,,,,,
S,-0.5,1730147509267724544,,,,,,,,,,,,,,0.99924684,-0.00208170,-0.00271747,0.03865192,-56.18628311,0.00614298,0.00080384,0.00069071,0.15881769,-0.00305327,-0.00593722,0.00129765,-0.05013628,0.05504791,-9.77386665,0.00140448,0.01230524,0.00606728,0.05154077,-0.04274267,9.77993393,-0.22195435,0.00000000
S,-0.5,1730147509264161536,,-0.00401475,0.00430623,-0.99973339,0.00096728,0.00433448,0.00292618,-0.00000493,0.00000453,-0.00100007,0.00000165,0.00000395,0.00000447,,,,,,,,,,,,,,,,,,,,,,,
S,-0.5,1730147509265162240,,-0.00293044,0.00475219,-1.00002789,-0.00235971,0.00477836,0.00249133,-0.00000220,0.00000468,-0.00100016,-0.00000162,0.00000550,0.00000254,,,,,,,,,,,,,,,,,,,,,,,
S,-0.5,1730147509269721344,,,,,,,,,,,,,,0.99924684,-0.00208170,-0.00271747,0.03865192,-56.18628311,0.00614298,0.00080384,0.00069071,0.15881769,0.00269993,0.00078574,-0.00262949,-0.06767682,0.03454122,-9.79829025,-0.01613605,-0.00820145,-0.01835632,0.05154077,-0.04274267,9.77993393,-0.22195435,0.00000000
S,-0.5,1730147509266162432,,-0.00269860,0.00426373,-1.00019419,-0.00410033,0.00347444,0.00386801,-0.00000240,0.00000449,-0.00100026,-0.00000484,0.00000385,0.00000348,,,,,,,,,,,,,,,,,,,,,,,
S,-0.5,1730147509267161856,,-0.00424870,0.00405160,-0.99891400,-0.00717421,0.00198352,0.00293752,-0.00000389,0.00000393,-0.00099920,-0.00000717,0.00000184,0.00000354,,,,,,,,,,,,,,,,,,,,,,,
S,-0.5,1730147509271716352,,,,,,,,,,,,,,0.99924684,-0.00208170,-0.00271747,0.03865192,-56.18628311,0.00614298,0.00080384,0.00069071,0.15881769,0.00010830,0.00305345,-0.00061457,-0.02153760,0.04586094,-9.80818272,0.03000316,0.00311826,-0.02824879,0.05154077,-0.04274267,9.77993393,-0.22195435,0.00000000
S,-0.5,1730147509268160512,,-0.00414939,0.00439244,-0.99849659,-0.00316706,0.00258602,0.00256859,-0.00000466,0.00000426,-0.00099816,-0.00000487,0.00000200,0.00000234,,,,,,,,,,,,,,,,,,,,,,,
S,-0.5,1730147509269163008,,-0.00572616,0.00338774,-0.99959910,-0.00383554,0.00285529,0.00357083,-0.00000541,0.00000368,-0.00099927,-0.00000244,0.00000300,0.00000327,,,,,,,,,,,,,,,,,,,,,,,
S,-0.5,1730147509273714432,,,,,,,,,,,,,,0.99924684,-0.00208170,-0.00271747,0.03865192,-56.18628311,0.00614298,0.00080384,0.00069071,0.15881769,-0.00543657,-0.00060609,0.00038717,-0.03818152,0.03858774,-9.79880047,0.01335924,-0.00415493,-0.01886654,0.05154077,-0.04274267,9.77993393,-0.22195435,0.00000000
S,-0.5,1730147509270164480,,-0.00502701,0.00210277,-0.99904639,-0.00344970,0.00334912,0.00697635,-0.00000566,0.00000202,-0.00099950,-0.00000373,0.00000335,0.00000668,,,,,,,,,,,,,,,,,,,,,,,
S,-0.5,1730147509271165696,,-0.00490738,0.00245665,-0.99872476,-0.00214243,0.00244152,0.00193666,-0.00000471,0.00000198,-0.00099861,-0.00000226,0.00000276,0.00000394,,,,,,,,,,,,,,,,,,,,,,,
S,-0.5,1730147509275711232,,,,,,,,,,,,,,0.99924684,-0.00208170,-0.00271747,0.03865192,-56.18628311,0.00614298,0.00080384,0.00069071,0.15881769,-0.00070467,0.00055415,0.00011319,-0.05303421,0.03607449,-9.79945087,-0.00149345,-0.00666818,-0.01951694,0.05154077,-0.04274267,9.77993393,-0.22195435,0.00000000
S,-0.5,1730147509272165888,,-0.00464896,0.00431260,-0.99991912,-0.00267030,0.00431756,-0.00091216,-0.00000466,0.00000409,-0.00099960,-0.00000216,0.00000369,-0.00000200,,,,,,,,,,,,,,,,,,,,,,,
S,-0.5,1730147509273165056,,-0.00208905,0.00326309,-1.00370026,-0.00301668,0.00368350,0.00017694,-0.00000247,0.00000404,-0.00100339,-0.00000312,0.00000440,-0.00000093,,,,,,,,,,,,,,,,,,,,,,,
S,-0.5,1730147509277706240,,,,,,,,,,,,,,0.99924684,-0.00208170,-0.00271747,0.03865192,-56.18628311,0.00614298,0.00080384,0.00069071,0.15881769,-0.00052324,0.00031961,0.00077822,-0.04615615,0.01944862,-9.79299259,0.00538462,-0.02329405,-0.01305866,0.05154077,-0.04274267,9.77993393,-0.22195435,0.00000000
S,-0.5,1730147509274163712,,-0.00245483,0.00388157,-1.00229645,-0.00555857,0.00146948,0.00247569,-0.00000157,0.00000344,-0.00100376,-0.00000521,0.00000167,0.00000240,,,,,,,,,,,,,,,,,,,,,,,
S,-0.5,1730147509275172096,,-0.00361555,0.00599462,-1.00195384,-0.00015032,0.00402948,0.00410182,-0.00000352,0.00000581,-0.00100157,-0.00000194,0.00000286,0.00000454,,,,,,,,,,,,,,,,,,,,,,,
S,-0.5,1730147509279710208,,,,,,,,,,,,,,0.99924684,-0.00208170,-0.00271747,0.03865192,-56.18628311,0.00614298,0.00080384,0.00069071,0.15881769,-0.00138787,0.00195186,-0.00408585,-0.02424052,0.03966416,-9.83992863,0.02730025,-0.00307851,-0.05999470,0.05154077,-0.04274267,9.77993393,-0.22195435,0.00000000
S,-0.5,1730147509276179968,,-0.00611481,0.00554433,-1.00077844,-0.00031751,0.00167505,0.00480804,-0.00000603,0.00000630,-0.00100088,0.00000143,0.00000292,0.00000520,,,,,,,,,,,,,,,,,,,,,,,
S,-0.5,1730147509277186816,,-0.00623207,0.00606068,-0.99972624,-0.00081501,0.00509051,0.00558762,-0.00000701,0.00000582,-0.00099954,-0.00000078,0.00000372,0.00000567,,,,,,,,,,,,,,,,,,,,,,,
S,-0.5,1730147509281712896,,,,,,,,,,,,,,0.99924684,-0.00208170,-0.00271747,0.03865192,-56.18628311,0.00614298,0.00080384,0.00069071,0.15881769,-0.00020816,0.00041560,0.00137997,-0.03452912,0.05695011,-9.82203960,0.01701165,0.01420743,-0.04210567,0.05154077,-0.04274267,9.77993393,-0.22195435,0.00000000
S,-0.5,1730147509278193152,,-0.00546100,0.00395078,-0.99998981,0.00008000,0.00443242,0.00498551,-0.00000564,0.00000450,-0.00099961,-0.00000024,0.00000564,0.00000534,,,,,,,,,,,,,,,,,,,,,,,
S,-0.5,1730147509279198464,,-0.00599307,0.00243253,-0.99891049,-0.00070912,0.00038461,0.00213219,-0.00000565,0.00000204,-0.00099919,-0.00000028,0.00000091,0.00000246,,,,,,,,,,,,,,,,,,,,,,,
S,-0.5,1730147509283714048,,,,,,,,,,,,,,0.99924684,-0.00208170,-0.00271747,0.03865192,-56.18628311,0.00614298,0.00080384,0.00069071,0.15881769,0.00095606,0.00127651,0.00251267,-0.06870769,0.05711114,-9.80217171,-0.01716692,0.01436847,-0.02223778,0.05154077,-0.04274267,9.77993393,-0.22195435,0.00000000
S,-0.5,1730147509280203008,,-0.00409067,0.00169667,-0.99949121,0.00342238,0.00166222,0.00208134,-0.00000461,0.00000135,-0.00099904,0.00000242,0.00000014,0.00000118,,,,,,,,,,,,,,,,,,,,,,,
S,-0.5,1730147509281206528,,-0.00511207,0.00208978,-1.00352347,0.00131306,0.00159946,0.00117121,-0.00000432,0.00000178,-0.00100298,0.00000301,0.00000202,0.00000132,,,,,,,,,,,,,,,,,,,,,,,
S,-0.5,1730147509285713152,,,,,,,,,,,,,,0.99924684,-0.00208170,-0.00271747,0.03865192,-56.18628311,0.00614298,0.00080384,0.00069071,0.15881769,0.00145304,-0.00153343,-0.00069916,-0.05542087,0.01997397,-9.79871178,-0.00388010,-0.02276870,-0.01877785,0.05154077,-0.04274267,9.77993393,-0.22195435,0.00000000
S,-0.5,1730147509282209024,,-0.00407599,0.00254521,-1.00337911,-0.00159381,0.00180721,0.00269717,-0.00000459,0.00000259,-0.00100469,-0.00000174,0.00000175,0.00000213,,,,,,,,,,,,,,,,,,,,,,,
S,-0.5,1730147509283210752,,-0.00483184,0.00226132,-1.00085950,-0.00227279,-0.00023737,0.00475028,-0.00000436,0.00000246,-0.00100127,-0.00000307,0.00000020,0.00000486,,,,,,,,,,,,,,,,,,,,,,,
S,-0.5,1730147509287710720,,,,,,,,,,,,,,0.99924684,-0.00208170,-0.00271747,0.03865192,-56.18628311,0.00614298,0.00080384,0.00069071,0.15881769,0.00474530,-0.00042647,-0.00183772,-0.04237244,0.01749585,-9.83583164,0.00916833,-0.02524682,-0.05589771,0.05154077,-0.04274267,9.77993393,-0.22195435,0.00000000
S,-0.5,1730147509284211968,,-0.00523102,0.00259090,-1.00017607,-0.00079327,-0.00010636,0.00416283,-0.00000540,0.00000244,-0.00099950,-0.00000128,-0.00000078,0.00000492,,,,,,,,,,,,,,,,,,,,,,,
S,-0.5,1730147509285212416,,-0.00641003,0.00297653,-0.99972224,0.00037334,0.00320977,0.00581894,-0.00000632,0.00000301,-0.00099959,0.00000063,0.00000265,0.00000533,,,,,,,,,,,,,,,,,,,,,,,
S,-0.5,1730147509289706752,,,,,,,,,,,,,,0.99924684,-0.00208170,-0.00271747,0.03865192,-56.18628311,0.00614298,0.00080384,0.00069071,0.15881769,-0.00134081,-0.00224376,0.00170487,-0.04280453,0.02410458,-9.81911755,0.00873624,-0.01863809,-0.03918362,0.05154077,-0.04274267,9.77993393,-0.22195435,0.00000000
S,-0.5,1730147509286212096,,-0.00698233,0.00459318,-0.99981153,-0.00190388,0.00020604,0.00555804,-0.00000725,0.00000442,-0.00099965,-0.00000112,0.00000181,0.00000613,,,,,,,,,,,,,,,,,,,,,,,
S,-0.5,1730147509287214848,,-0.00537965,0.00433306,-0.99879533,-0.00257266,0.00097793,0.00342354,-0.00000585,0.00000490,-0.00099901,-0.00000318,-0.00000012,0.00000373,,,,,,,,,,,,,,,,,,,,,,,
S,-0.5,1730147509291710720,,,,,,,,,,,,,,0.99924684,-0.00208170,-0.00271747,0.03865192,-56.18628311,0.00614298,0.00080384,0.00069071,0.15881769,0.00236622,0.00020496,0.00217294,-0.06200342,0.02952996,-9.80260181,-0.01046265,-0.01321271,-0.02266788,0.05154077,-0.04274267,9.77993393,-0.22195435,0.00000000
S,-0.5,1730147509288222464,,-0.00462221,0.00534088,-1.00049794,-0.00322870,0.00527918,0.00472899,-0.00000425,0.00000507,-0.00099987,-0.00000332,0.00000474,0.00000381,,,,,,,,,,,,,,,,,,,,,,,
S,-0.5,1730147509289229056,,-0.00410653,0.00409397,-1.00024569,-0.00221077,0.00428364,0.00359297,-0.00000396,0.00000464,-0.00100083,-0.00000260,0.00000583,0.00000421,,,,,,,,,,,,,,,,,,,,,,,
S,-0.5,1730147509293713152,,,,,,,,,,,,,,0.99924684,-0.00208170,-0.00271747,0.03865192,-56.18628311,0.00614298,0.00080384,0.00069071,0.15881769,-0.00144211,-0.00256244,0.00057020,-0.05740000,0.04800441,-9.79692554,-0.00585923,0.00526174,-0.01699162,0.05154077,-0.04274267,9.77993393,-0.22195435,0.00000000
S,-0.5,1730147509290235136,,-0.00584496,0.00229268,-1.00015831,-0.00543856,0.00275201,0.00193174,-0.00000537,0.00000222,-0.00100009,-0.00000453,0.00000271,0.00000187,,,,,,,,,,,,,,,,,,,,,,,
S,-0.5,1730147509291240192,,-0.00644566,0.00239703,-0.99939477,-0.00285758,0.00143595,0.00086794,-0.00000689,0.00000180,-0.00099951,-0.00000435,0.00000119,0.00000053,,,,,,,,,,,,,,,,,,,,,,,
S,-0.5,1730147509295714304,,,,,,,,,,,,,,0.99924684,-0.00208170,-0.00271747,0.03865192,-56.18628311,0.00614298,0.00080384,0.00069071,0.15881769,-0.00087065,0.00338964,0.00105680,-0.03882482,0.04551524,-9.81482410,0.01271594,0.00277256,-0.03489017,0.05154077,-0.04274267,9.77993393,-0.22195435,0.00000000
S,-0.5,1730147509292244736,,-0.00651296,0.00270884,-0.99924827,-0.00110862,0.00185395,0.00281974,-0.00000669,0.00000269,-0.00099903,-0.00000060,0.00000136,0.00000213,,,,,,,,,,,,,,,,,,,,,,,
S,-0.5,1730147509293248512,,-0.00637935,0.00307870,-0.99986756,-0.00345779,0.00140566,0.00146388,-0.00000643,0.00000311,-0.00099971,-0.00000247,0.00000162,0.00000233,,,,,,,,,,,,,,,,,,,,,,,
S,-0.5,1730147509297713664,,,,,,,,,,,,,,0.99924684,-0.00208170,-0.00271747,0.03865192,-56.18628311,0.00614298,0.00080384,0.00069071,0.15881769,-0.00262005,-0.00125647,-0.00262567,-0.06756786,0.01769790,-9.80180264,-0.01602709,-0.02504477,-0.02186871,0.05154077,-0.04274267,9.77993393,-0.22195435,0.00000000
S,-0.5,1730147509294251264,,-0.00527614,0.00502004,-1.00056064,-0.00299501,0.00554696,0.00078578,-0.00000543,0.00000479,-0.00100063,-0.00000383,0.00000465,0.00000048,,,,,,,,,,,,,,,,,,,,,,,
S,-0.5,1730147509295252992,,-0.00631689,0.00225378,-0.99808013,-0.00083752,0.00170417,0.00009034,-0.00000578,0.00000337,-0.00099875,-0.00000108,0.00000372,0.00000000,,,,,,,,,,,,,,,,,,,,,,,
S,-0.5,1730147509299711232,,,,,,,,,,,,,,0.99924684,-0.00208170,-0.00271747,0.03865192,-56.18628311,0.00614298,0.00080384,0.00069071,0.15881769,-0.00074036,-0.00082384,-0.00082660,-0.06300797,0.03050762,-9.80379009,-0.01146721,-0.01223505,-0.02385616,0.05154077,-0.04274267,9.77993393,-0.22195435,0.00000000
S,-0.5,1730147509296254208,,-0.00417980,0.00183697,-0.99616373,-0.00095116,-0.00594617,0.00232931,-0.00000490,0.00000103,-0.00099572,-0.00000024,-0.00000578,0.00000170,,,,,,,,,,,,,,,,,,,,,,,
S,-0.5,1730147509297254400,,-0.00380265,0.00404677,-0.99690181,-0.00236156,-0.00106799,-0.00084657,-0.00000319,0.00000351,-0.00099616,-0.00000214,-0.00000439,0.00000044,,,,,,,,,,,,,,,,,,,,,,,
S,-0.5,1730147509301707264,,,,,,,,,,,,,,0.99924684,-0.00208170,-0.00271747,0.03865192,-56.18628311,0.00614298,0.00080384,0.00069071,0.15881769,0.00065169,0.00127658,-0.00315726,-0.05665020,0.03308862,-9.79440594,-0.00510944,-0.00965406,-0.01447201,0.05154077,-0.04274267,9.77993393,-0.22195435,0.00000000
S,-0.5,1730147509298254080,,-0.00349779,0.00350347,-1.00100327,-0.00168696,0.00077592,0.00354155,-0.00000343,0.00000431,-0.00100049,-0.00000226,0.00000199,0.00000173,,,,,,,,,,,,,,,,,,,,,,,
S,-0.5,1730147509299256832,,-0.00183571,0.00198260,-1.00099623,-0.00131227,-0.00034209,0.00426351,-0.00000204,0.00000209,-0.00100230,-0.00000117,0.00000045,0.00000553,,,,,,,,,,,,,,,,,,,,,,,
S,-0.5,1730147509303710976,,,,,,,,,,,,,,0.99924684,-0.00208170,-0.00271747,0.03865192,-55.50984955,0.00614298,0.00080384,0.00069071,0.15881769,-0.00040758,-0.00683349,-0.00271497,-0.03129106,0.03444832,-9.76896954,0.02024971,-0.00829435,0.01096439,0.05154077,-0.04274267,9.77993393,0.45447922,0.00000000
S,-0.5,1730147509300264448,,-0.00565310,0.00199642,-0.99888766,-0.00052399,0.00002211,0.00764358,-0.00000443,0.00000151,-0.00099927,-0.00000055,-0.00000040,0.00000726,,,,,,,,,,,,,,,,,,,,,,,
S,-0.5,1730147509301271040,,-0.00447219,0.00479708,-0.99930817,-0.00670785,0.00368136,0.00523256,-0.00000590,0.00000429,-0.00099856,-0.00000533,0.00000313,0.00000675,,,,,,,,,,,,,,,,,,,,,,,
S,-0.5,1730147509305713408,,,,,,,,,,,,,,0.99924684,-0.00208170,-0.00271747,0.03865192,-55.50984955,0.00614298,0.00080384,0.00069071,0.15881769,0.00056828,-0.00199603,0.00237101,-0.02001322,0.02045570,-9.82923603,0.03152755,-0.02228697,-0.04930210,0.05154077,-0.04274267,9.77993393,0.45447922,0.00000000
S,-0.5,1730147509302276864,,-0.00547859,0.00432857,-0.99886328,-0.00091416,0.00709053,0.00183793,-0.00000492,0.00000531,-0.00099908,-0.00000394,0.00000764,0.00000169,,,,,,,,,,,,,,,,,,,,,,,
S,-0.5,1730147509303281664,,-0.00535568,0.00362118,-1.00075150,-0.00290232,0.00686412,0.00109258,-0.00000570,0.00000360,-0.00100027,-0.00000070,0.00000799,0.00000015,,,,,,,,,,,,,,,,,,,,,,,
S,-0.5,1730147509307714304,,,,,,,,,,,,,,0.99924684,-0.00208170,-0.00271747,0.03865192,-55.50984955,0.00614298,0.00080384,0.00069071,0.15881769,-0.00359949,0.00068843,0.00358842,-0.05787462,0.04210018,-9.79253387,-0.00633386,-0.00064249,-0.01259995,0.05154077,-0.04274267,9.77993393,0.45447922,0.00000000
S,-0.5,1730147509304285696,,-0.00538324,0.00334584,-1.00166035,-0.00567244,0.00213041,0.00274806,-0.00000534,0.00000317,-0.00100210,-0.00000580,0.00000292,0.00000221,,,,,,,,,,,,,,,,,,,,,,,
S,-0.5,1730147509305288960,,-0.00834271,0.00354207,-0.99982655,-0.00497522,0.00219136,0.00372151,-0.00000781,0.00000342,-0.00100045,-0.00000598,0.00000067,0.00000407,,,,,,,,,,,,,,,,,,,,,,,
S,-0.5,1730147509309713408,,,,,,,,,,,,,,0.99924684,-0.00208170,-0.00271747,0.03865192,-55.50984955,0.00614298,0.00080384,0.00069071,0.15881769,0.00103699,0.00554643,-0.00301065,-0.05588148,0.03530693,-9.80926704,-0.00434071,-0.00743574,-0.02933311,0.05154077,-0.04274267,9.77993393,0.45447922,0.00000000
S,-0.5,1730147509306291456,,-0.00777433,0.00523171,-1.00080049,-0.00327088,0.00117452,0.00246154,-0.00000882,0.00000499,-0.00100004,-0.00000336,0.00000138,0.00000300,,,,,,,,,,,,,,,,,,,,,,,
S,-0.5,1730147509307292928,,-0.00608617,0.00614718,-1.00066876,-0.00358749,0.00020846,0.00213592,-0.00000621,0.00000652,-0.00100100,-0.00000299,0.00000006,0.00000179,,,,,,,,,,,,,,,,,,,,,,,
S,-0.5,1730147509311710720,,,,,,,,,,,,,,0.99924684,-0.00208170,-0.00271747,0.03865192,-55.50984955,0.00614298,0.00080384,0.00069071,0.15881769,-0.00424976,-0.00177051,0.00091349,-0.07662882,0.03352682,-9.81105232,-0.02508805,-0.00921585,-0.03111839,0.05154077,-0.04274267,9.77993393,0.45447922,0.00000000
S,-0.5,1730147509308293632,,-0.00493041,0.00538344,-1.00047910,-0.00408931,0.00294266,0.00071534,-0.00000460,0.00000581,-0.00100047,-0.00000410,0.00000214,0.00000087,,,,,,,,,,,,,,,,,,,,,,,
S,-0.5,1730147509309293568,,-0.00747469,0.00495587,-1.00012219,-0.00224874,0.00512380,0.00285307,-0.00000664,0.00000479,-0.00100013,-0.00000274,0.00000560,0.00000201,,,,,,,,,,,,,,,,,,,,,,,
S,-0.5,1730147509313706240,,,,,,,,,,,,,,0.99924684,-0.00208170,-0.00271747,0.03865192,-55.50984955,0.00614298,0.00080384,0.00069071,0.15881769,-0.00125356,-0.00238369,-0.00136409,-0.06091976,0.06392608,-9.81648350,-0.00937899,0.02118341,-0.03654957,0.05154077,-0.04274267,9.77993393,0.45447922,0.00000000
S,-0.5,1730147509310292992,,-0.00528400,0.00367376,-0.99987501,-0.00361356,0.00152353,0.00285786,-0.00000649,0.00000377,-0.00099981,-0.00000278,0.00000287,0.00000354,,,,,,,,,,,,,,,,,,,,,,,
S,-0.5,1730147509311295488,,-0.00899996,0.00221352,-0.99735522,-0.00033776,0.00123492,0.00334470,-0.00000763,0.00000207,-0.00099773,-0.00000137,0.00000014,0.00000326,,,,,,,,,,,,,,,,,,,,,,,
S,-0.5,1730147509315704576,,,,,,,,,,,,,,0.99924684,-0.00208170,-0.00271747,0.03865192,-55.50984955,0.00614298,0.00080384,0.00069071,0.15881769,-0.00100899,0.00315383,-0.00114563,-0.06515770,0.04697715,-9.80789375,-0.01361693,0.00423448,-0.02795982,0.05154077,-0.04274267,9.77993393,0.45447922,0.00000000
S,-0.5,1730147509312297216,,-0.00690614,0.00122498,-0.99821925,-0.00075971,0.00219510,0.00590723,-0.00000847,0.00000094,-0.00099726,0.00000036,0.00000193,0.00000560,,,,,,,,,,,,,,,,,,,,,,,
S,-0.5,1730147509313303552,,-0.00528283,0.00109838,-0.99993956,-0.00229705,0.00208402,0.00372521,-0.00000491,0.00000081,-0.00099990,-0.00000215,0.00000241,0.00000494,,,,,,,,,,,,,,,,,,,,,,,
S,-0.5,1730147509317707008,,,,,,,,,,,,,,0.99924684,-0.00208170,-0.00271747,0.03865192,-55.50984955,0.00614298,0.00080384,0.00069071,0.15881769,0.00036652,-0.00230265,0.00009966,-0.07480230,0.02030574,-9.78443146,-0.02326154,-0.02243694,-0.00449753,0.05154077,-0.04274267,9.77993393,0.45447922,0.00000000
S,-0.5,1730147509314309120,,-0.00480932,0.00187993,-1.00095284,-0.00268658,-0.00200017,0.00163918,-0.00000438,0.00000170,-0.00100132,-0.00000311,-0.00000129,0.00000132,,,,,,,,,,,,,,,,,,,,,,,
S,-0.5,1730147509315315200,,-0.00673619,0.00308576,-0.99996668,-0.00205973,0.00182010,0.00157833,-0.00000624,0.00000312,-0.00100047,-0.00000230,-0.00000017,0.00000093,,,,,,,,,,,,,,,,,,,,,,,
S,-0.5,1730147509319709184,,,,,,,,,,,,,,0.99924684,-0.00208170,-0.00271747,0.03865192,-55.50984955,0.00614298,0.00080384,0.00069071,0.15881769,-0.00041814,-0.00003418,0.00177923,-0.04816290,0.00791328,-9.80568886,0.00337787,-0.03482939,-0.02575493,0.05154077,-0.04274267,9.77993393,0.45447922,0.00000000
S,-0.5,1730147509316320512,,-0.00657969,0.00300231,-0.99964637,-0.00266245,0.00124847,0.00293500,-0.00000722,0.00000340,-0.00099939,-0.00000235,0.00000257,0.00000267,,,,,,,,,,,,,,,,,,,,,,,
S,-0.5,1730147509317324800,,-0.00214950,0.00348460,-1.00064397,-0.00079160,0.00078423,0.00663751,-0.00000290,0.00000337,-0.00100036,-0.00000132,0.00000069,0.00000640,,,,,,,,,,,,,,,,,,,,,,,
S,-0.5,1730147509321709056,,,,,,,,,,,,,,0.99924684,-0.00208170,-0.00271747,0.03865192,-55.50984955,0.00614298,0.00080384,0.00069071,0.15881769,-0.00056371,-0.00261805,-0.00223273,-0.06114717,0.03055143,-9.81124210,-0.00960640,-0.01219125,-0.03130817,0.05154077,-0.04274267,9.77993393,0.45447922,0.00000000
S,-0.5,1730147509318328064,,-0.00235112,0.00399304,-1.00073338,-0.00109764,0.00601539,0.00393976,-0.00000090,0.00000405,-0.00100103,-0.00000045,0.00000492,0.00000561,,,,,,,,,,,,,,,,,,,,,,,
S,-0.5,1730147509319330304,,-0.00597105,0.00444788,-1.00110269,-0.00156084,0.00676043,-0.00208594,-0.00000538,0.00000453,-0.00100106,-0.00000157,0.00000829,-0.00000185,,,,,,,,,,,,,,,,,,,,,,,
S,-0.5,1730147509323707136,,,,,,,,,,,,,,0.99924684,-0.00208170,-0.00271747,0.03865192,-55.50984955,0.00614298,0.00080384,0.00069071,0.15881769,0.00041053,-0.00175738,0.00323853,-0.02848604,0.03305160,-9.81018829,0.02305473,-0.00969108,-0.03025436,0.05154077,-0.04274267,9.77993393,0.45447922,0.00000000
S,-0.5,1730147509320331776,,-0.00557542,0.00490557,-0.99918729,-0.00129260,0.00392981,0.00012421,-0.00000680,0.00000497,-0.00099965,-0.00000149,0.00000468,-0.00000220,,,,,,,,,,,,,,,,,,,,,,,
S,-0.5,1730147509321332480,,-0.00643961,0.00654135,-0.99889833,-0.00152963,0.00201195,0.00448681,-0.00000616,0.00000639,-0.00099834,-0.00000140,0.00000146,0.00000440,,,,,,,,,,,,,,,,,,,,,,,
S,-0.5,1730147509325703424,,,,,,,,,,,,,,0.99924684,-0.00208170,-0.00271747,0.03865192,-55.50984955,0.00614298,0.00080384,0.00069071,0.15881769,0.00015980,0.00584619,-0.00500796,-0.05273273,0.04439643,-9.81708431,-0.00119196,0.00165376,-0.03715038,0.05154077,-0.04274267,9.77993393,0.45447922,0.00000000
S,-0.5,1730147509322332416,,-0.00561590,0.00545433,-0.99885857,-0.00463165,0.00110943,0.00333637,-0.00000604,0.00000617,-0.00099877,-0.00000414,0.00000066,0.00000493,,,,,,,,,,,,,,,,,,,,,,,
S,-0.5,1730147509323334912,,-0.00427232,0.00665895,-0.99969649,-0.00287749,-0.00124783,0.00475058,-0.00000425,0.00000609,-0.00099953,-0.00000418,-0.00000111,0.00000413,,,,,,,,,,,,,,,,,,,,,,,
S,-0.5,1730147509327701760,,,,,,,,,,,,,,0.99924684,-0.00208170,-0.00271747,0.03865192,-55.50984955,0.00614298,0.00080384,0.00069071,0.15881769,0.00033272,-0.00098462,0.00123958,-0.06037885,0.06266280,-9.79038239,-0.00883808,0.01992012,-0.01044846,0.05154077,-0.04274267,9.77993393,0.45447922,0.00000000
S,-0.5,1730147509324336384,,-0.00531028,0.00506234,-1.00144327,-0.00107066,0.00070494,0.00555267,-0.00000469,0.00000574,-0.00100139,-0.00000084,-0.00000040,0.00000586,,,,,,,,,,,,,,,,,,,,,,,
S,-0.5,1730147509325337088,,-0.00612086,0.00469652,-0.99946356,-0.00116939,0.00414304,0.00237052,-0.00000630,0.00000425,-0.00100038,-0.00000058,0.00000414,0.00000320,,,,,,,,,,,,,,,,,,,,,,,
S,-0.5,1730147509329703936,,,,,,,,,,,,,,0.99924684,-0.00208170,-0.00271747,0.03865192,-55.50984955,0.00614298,0.00080384,0.00069071,0.15881769,-0.00244970,-0.00355082,0.00096932,-0.04172134,0.05976248,-9.80205727,0.00981943,0.01701981,-0.02212334,0.05154077,-0.04274267,9.77993393,0.45447922,0.00000000
S,-0.5,1730147509326342656,,-0.00650926,0.00205896,-0.99848127,-0.00354682,0.00734489,0.00318121,-0.00000670,0.00000242,-0.00099803,-0.00000315,0.00000786,0.00000202,,,,,,,,,,,,,,,,,,,,,,,
S,-0.5,1730147509327347456,,-0.00653491,0.00110651,-0.99777478,-0.00536025,0.00451901,0.00356679,-0.00000665,0.00000044,-0.00099759,-0.00000579,0.00000605,0.00000375,,,,,,,,,,,,,,,,,,,,,,,
S,-0.5,1730147509331705344,,,,,,,,,,,,,,0.99924684,-0.00208170,-0.00271747,0.03865192,-55.50984955,0.00614298,0.00080384,0.00069071,0.15881769,0.00115757,0.00169596,0.00004589,-0.06181716,0.04172484,-9.81036949,-0.01027639,-0.00101783,-0.03043556,0.05154077,-0.04274267,9.77993393,0.45447922,0.00000000
S,-0.5,1730147509328352512,,-0.00641939,0.00406680,-0.99875939,-0.00446204,0.00128482,0.00476678,-0.00000645,0.00000323,-0.00099836,-0.00000520,0.00000097,0.00000467,,,,,,,,,,,,,,,,,,,,,,,
S,-0.5,1730147509329356544,,-0.00567741,0.00319732,-0.99938673,0.00054154,0.00235576,0.00726886,-0.00000578,0.00000430,-0.00099959,-0.00000008,0.00000113,0.00000720,,,,,,,,,,,,,,,,,,,,,,,
S,-0.5,1730147509333704960,,,,,,,,,,,,,,0.99924684,-0.00208170,-0.00271747,0.03865192,-55.50984955,0.00614298,0.00080384,0.00069071,0.15881769,-0.00405363,0.00360762,0.00059667,-0.06525371,0.00431709,-9.78302097,-0.01371295,-0.03842558,-0.00308704,0.05154077,-0.04274267,9.77993393,0.45447922,0.00000000
S,-0.5,1730147509330359552,,-0.00458374,0.00363023,-1.00096214,-0.00107495,0.00315143,0.00474601,-0.00000455,0.00000327,-0.00100088,0.00000081,0.00000335,0.00000600,,,,,,,,,,,,,,,,,,,,,,,
S,-0.5,1730147509331361792,,-0.00398208,0.00541540,-1.00194323,-0.00236290,0.00428131,0.00401345,-0.00000374,0.00000523,-0.00100227,-0.00000264,0.00000433,0.00000334,,,,,,,,,,,,,,,,,,,,,,,
S,-0.5,1730147509335703040,,,,,,,,,,,,,,0.99924684,-0.00208170,-0.00271747,0.03865192,-55.50984955,0.00614298,0.00080384,0.00069071,0.15881769,0.00165225,-0.00131229,0.00403812,-0.05663770,0.04214073,-9.80259132,-0.00509693,-0.00060194,-0.02265739,0.05154077,-0.04274267,9.77993393,0.45447922,0.00000000
S,-0.5,1730147509332363008,,-0.00371769,0.00441888,-1.00110817,-0.00850201,0.00458466,0.00178300,-0.00000357,0.00000517,-0.00100157,-0.00000780,0.00000489,0.00000196,,,,,,,,,,,,,,,,,,,,,,,
S,-0.5,1730147509333363456,,-0.00461656,0.00528289,-0.99821198,-0.00583079,0.00557784,0.00310924,-0.00000437,0.00000481,-0.00099847,-0.00000827,0.00000549,0.00000216,,,,,,,,,,,,,,,,,,,,,,,
S,-0.5,1730147509337699072,,,,,,,,,,,,,,0.99924529,-0.00207993,-0.00271792,0.03869440,-55.50984955,0.00614258,0.00080167,0.00068871,0.15880738,-0.00090950,0.00188527,0.00018539,-0.03670815,0.05128035,-9.82887554,0.01484094,0.00856978,-0.04893780,0.05154909,-0.04271057,9.77993774,0.45447922,0.00000000
S,-0.5,1730147509334362880,,-0.00539309,0.00390387,-0.99731553,-0.00750455,0.00021117,-0.00062938,-0.00000554,0.00000443,-0.00099656,-0.00000635,0.00000150,0.00000047,,,,,,,,,,,,,,,,,,,,,,,
S,-0.5,1730147509335365376,,-0.00433673,0.00316416,-0.99763393,-0.00141402,0.00011237,0.00100673,-0.00000478,0.00000286,-0.00099729,-0.00000305,-0.00000158,-0.00000048,,,,,,,,,,,,,,,,,,,,,,,
S,-0.5,1730147509339697664,,,,,,,,,,,,,,0.99924529,-0.00207993,-0.00271792,0.03869440,-55.50984955,0.00614258,0.00080167,0.00068871,0.15880738,-0.00653633,0.00304993,-0.00099981,-0.04284564,0.04715770,-9.79166985,0.00870346,0.00444714,-0.01173210,0.05154909,-0.04271057,9.77993774,0.45447922,0.00000000
S,-0.5,1730147509336367104,,-0.00384089,0.00221555,-0.99728680,0.00027291,0.00624808,0.00509024,-0.00000359,0.00000215,-0.00099745,0.00000191,0.00000510,0.00000487,,,,,,,,,,,,,,,,,,,,,,,
S,-0.5,1730147509337368064,,-0.00340535,0.00390489,-0.99774373,0.00133389,0.00000142,0.00461126,-0.00000333,0.00000330,-0.00099755,0.00000168,0.00000309,0.00000600,,,,,,,,,,,,,,,,,,,,,,,
S,-0.5,1730147509341700608,,,,,,,,,,,,,,0.99924529,-0.00207993,-0.00271792,0.03869440,-55.50984955,0.00614258,0.00080167,0.00068871,0.15880738,-0.00131945,-0.00402196,-0.00363868,-0.04683747,0.02804043,-9.78008175,0.00471162,-0.01467013,-0.00014400,0.05154909,-0.04271057,9.77993774,0.45447922,0.00000000
S,-0.5,1730147509338374656,,-0.00483190,0.00611591,-0.99964708,-0.00046866,0.00093428,0.00191268,-0.00000443,0.00000625,-0.00099945,0.00000020,-0.00000122,0.00000225,,,,,,,,,,,,,,,,,,,,,,,
S,-0.5,1730147509339380480,,-0.00536891,0.00627061,-1.00136781,-0.00278295,-0.00184669,0.00354652,-0.00000573,0.00000695,-0.00100166,-0.00000294,-0.00000104,0.00000239,,,,,,,,,,,,,,,,,,,,,,,
S,-0.5,1730147509343702016,,,,,,,,,,,,,,0.99924529,-0.00207993,-0.00271792,0.03869440,-55.80578995,0.00614258,0.00080167,0.00068871,0.15880738,0.00341203,0.00064542,0.00284000,-0.03262491,0.03232291,-9.78262711,0.01892418,-0.01038766,-0.00268936,0.05154909,-0.04271057,9.77993774,0.15853882,0.00000000
S,-0.5,1730147509340385280,,-0.00421040,0.00847326,-1.00231600,-0.00326084,0.00085920,0.00329773,-0.00000459,0.00000812,-0.00100269,-0.00000391,-0.00000052,0.00000386,,,,,,,,,,,,,,,,,,,,,,,
S,-0.5,1730147509341389056,,-0.00407319,0.00714838,-1.00199246,-0.00389958,0.00355262,0.00182003,-0.00000373,0.00000809,-0.00100235,-0.00000394,0.00000392,0.00000201,,,,,,,,,,,,,,,,,,,,,,,
S,-0.5,1730147509345701376,,,,,,,,,,,,,,0.99924529,-0.00207993,-0.00271792,0.03869440,-55.80578995,0.00614258,0.00080167,0.00068871,0.15880738,-0.00120230,-0.00348850,-0.00076743,-0.05614708,0.06812238,-9.82293892,-0.00459799,0.02541181,-0.04300117,0.05154909,-0.04271057,9.77993774,0.15853882,0.00000000
S,-0.5,1730147509342391808,,-0.00402301,0.00685338,-1.00196564,-0.00562964,0.00261731,-0.00087778,-0.00000399,0.00000649,-0.00100187,-0.00000552,0.00000364,-0.00000086,,,,,,,,,,,,,,,,,,,,,,,
S,-0.5,1730147509343393792,,-0.00647178,0.00548133,-0.99948150,-0.00356735,0.00432596,0.00190581,-0.00000601,0.00000564,-0.00099992,-0.00000449,0.00000372,0.00000054,,,,,,,,,,,,,,,,,,,,,,,
S,-0.5,1730147509347699200,,,,,,,,,,,,,,0.99924529,-0.00207993,-0.00271792,0.03869440,-55.80578995,0.00614258,0.00080167,0.00068871,0.15880738,-0.00220171,0.00148054,-0.00114879,-0.03656887,0.07933805,-9.82972622,0.01498023,0.03662749,-0.04978848,0.05154909,-0.04271057,9.77993774,0.15853882,0.00000000
S,-0.5,1730147509344394752,,-0.00518033,0.00592893,-0.99966121,0.00075215,0.00619991,0.00217113,-0.00000619,0.00000541,-0.00099884,0.00000062,0.00000640,0.00000301,,,,,,,,,,,,,,,,,,,,,,,
S,-0.5,1730147509345394944,,-0.00469327,0.00575892,-0.99925727,-0.00082321,0.00290560,0.00552788,-0.00000437,0.00000593,-0.00099939,0.00000084,0.00000410,0.00000500,,,,,,,,,,,,,,,,,,,,,,,
S,-0.5,1730147509349694976,,,,,,,,,,,,,,0.99924529,-0.00207993,-0.00271792,0.03869440,-55.80578995,0.00614258,0.00080167,0.00068871,0.15880738,-0.00275880,0.00127378,-0.00261679,-0.05894661,0.05527648,-9.80590820,-0.00739751,0.01256591,-0.02597046,0.05154909,-0.04271057,9.77993774,0.15853882,0.00000000
S,-0.5,1730147509346394368,,-0.00546019,0.00385494,-1.00077689,-0.00408525,-0.00161607,0.00584972,-0.00000517,0.00000415,-0.00100037,-0.00000399,-0.00000184,0.00000686,,,,,,,,,,,,,,,,,,,,,,,
S,-0.5,1730147509347396864,,-0.00742961,0.00316682,-1.00047290,-0.00033754,-0.00050329,0.00385466,-0.00000732,0.00000269,-0.00100101,-0.00000206,-0.00000214,0.00000432,,,,,,,,,,,,,,,,,,,,,,,
S,-0.5,1730147509351693056,,,,,,,,,,,,,,0.99924529,-0.00207993,-0.00271792,0.03869440,-55.80578995,0.00614258,0.00080167,0.00068871,0.15880738,0.00257190,0.00165662,0.00184434,-0.04286365,0.05817565,-9.80064774,0.00868544,0.01546508,-0.02070999,0.05154909,-0.04271057,9.77993774,0.15853882,0.00000000
S,-0.5,1730147509348398592,,-0.00801120,0.00426984,-1.00024891,0.00020084,0.00236174,0.00659375,-0.00000853,0.00000385,-0.00100019,0.00000130,0.00000220,0.00000546,,,,,,,,,,,,,,,,,,,,,,,
S,-0.5,1730147509349399296,,-0.00805625,0.00570461,-1.00055861,-0.00222812,0.00365528,0.00318198,-0.00000823,0.00000580,-0.00100043,-0.00000162,0.00000433,0.00000467,,,,,,,,,,,,,,,,,,,,,,,
S,-0.5,1730147509353689856,,,,,,,,,,,,,,0.99924529,-0.00207993,-0.00271792,0.03869440,-55.80578995,0.00614258,0.00080167,0.00068871,0.15880738,-0.00032286,-0.00458878,0.00116148,-0.07174477,0.02633696,-9.81657314,-0.02019568,-0.01637360,-0.03663540,0.05154909,-0.04271057,9.77993774,0.15853882,0.00000000
S,-0.5,1730147509350404608,,-0.00478637,0.00434057,-1.00037611,-0.00006093,0.00406752,0.00111411,-0.00000539,0.00000505,-0.00100051,-0.00000123,0.00000440,0.00000040,,,,,,,,,,,,,,,,,,,,,,,
S,-0.5,1730147509351408896,,-0.00311210,0.00464682,-1.00068045,0.00242116,0.00381600,-0.00010218,-0.00000238,0.00000416,-0.00100057,0.00000266,0.00000399,-0.00000054,,,,,,,,,,,,,,,,,,,,,,,
S,-0.5,1730147509355690240,,,,,,,,,,,,,,0.99924529,-0.00207993,-0.00271792,0.03869440,-55.80578995,0.00614258,0.00080167,0.00068871,0.15880738,0.00011850,0.00188820,0.00151564,-0.08073831,0.05683221,-9.81087780,-0.02918921,0.01412164,-0.03094006,0.05154909,-0.04271057,9.77993774,0.15853882,0.00000000
S,-0.5,1730147509352412416,,-0.00476380,0.00542098,-0.99934268,0.00212046,0.00167407,0.00121304,-0.00000393,0.00000538,-0.00099968,0.00000297,0.00000198,0.00000059,,,,,,,,,,,,,,,,,,,,,,,
S,-0.5,1730147509353414912,,-0.00593167,0.00673795,-0.99728388,-0.00163334,0.00223093,0.00075857,-0.00000625,0.00000675,-0.00099723,-0.00000105,0.00000145,0.00000126,,,,,,,,,,,,,,,,,,,,,,,
S,-0.5,1730147509357689088,,,,,,,,,,,,,,0.99924529,-0.00207993,-0.00271792,0.03869440,-55.80578995,0.00614258,0.00080167,0.00068871,0.15880738,0.00439397,0.00154890,-0.00369753,-0.02329568,0.04076296,-9.81221104,0.02825341,-0.00194760,-0.03227329,0.05154909,-0.04271057,9.77993774,0.15853882,0.00000000
S,-0.5,1730147509354416640,,-0.00593113,0.00728173,-0.99711370,0.00139379,0.00532126,0.00563689,-0.00000630,0.00000760,-0.00099649,-0.00000035,0.00000494,0.00000461,,,,,,,,,,,,,,,,,,,,,,,
S,-0.5,1730147509355417344,,-0.00654111,0.00430958,-0.99735886,-0.00255907,0.00400954,0.00509251,-0.00000643,0.00000502,-0.00099726,-0.00000088,0.00000523,0.00000674,,,,,,,,,,,,,,,,,,,,,,,
S,-0.5,1730147509359686400,,,,,,,,,,,,,,0.99924529,-0.00207993,-0.00271792,0.03869440,-55.80578995,0.00614258,0.00080167,0.00068871,0.15880738,0.00068691,-0.00099606,-0.00189832,-0.06124522,0.06615005,-9.77950668,-0.00969613,0.02343949,0.00043106,0.05154909,-0.04271057,9.77993774,0.15853882,0.00000000
S,-0.5,1730147509356417536,,-0.00570028,0.00331638,-0.99881703,-0.00160198,0.00477773,0.00569394,-0.00000605,0.00000255,-0.00099863,-0.00000303,0.00000422,0.00000541,,,,,,,,,,,,,,,,,,,,,,,
S,-0.5,1730147509357417216,,-0.00427895,0.00196675,-1.00025284,-0.00292864,0.00524160,0.00275199,-0.00000427,0.00000190,-0.00100046,-0.00000238,0.00000540,0.00000348,,,,,,,,,,,,,,,,,,,,,,,
S,-0.5,1730147509361681920,,,,,,,,,,,,,,0.99924529,-0.00207993,-0.00271792,0.03869440,-55.80578995,0.00614258,0.00080167,0.00068871,0.15880738,0.00085663,0.00278753,0.00358613,-0.06305763,0.04925611,-9.77978039,-0.01150854,0.00654555,0.00015736,0.05154909,-0.04271057,9.77993774,0.15853882,0.00000000
S,-0.5,1730147509358415872,,-0.00282705,0.00186005,-0.99886674,-0.00184441,0.00482994,0.00258070,-0.00000264,0.00000145,-0.00099958,-0.00000246,0.00000505,0.00000168,,,,,,,,,,,,,,,,,,,,,,,
S,-0.5,1730147509359418368,,-0.00412276,0.00214245,-0.99870545,0.00271775,0.00215247,0.00013275,-0.00000343,0.00000206,-0.00099829,0.00000223,0.00000251,0.00000052,,,,,,,,,,,,,,,,,,,,,,,
S,-0.5,1730147509363680256,,,,,,,,,,,,,,0.99924529,-0.00207993,-0.00271792,0.03869440,-55.80578995,0.00614258,0.00080167,0.00068871,0.15880738,-0.00064901,0.00295783,0.00031985,-0.04186900,0.01859110,-9.81112289,0.00968010,-0.02411946,-0.03118515,0.05154909,-0.04271057,9.77993774,0.15853882,0.00000000
S,-0.5,1730147509360420352,,-0.00713887,0.00207971,-0.99884081,-0.00116836,0.00235775,0.00074663,-0.00000700,0.00000218,-0.00099876,0.00000099,0.00000147,-0.00000014,,,,,,,,,,,,,,,,,,,,,,,
S,-0.5,1730147509361421312,,-0.00565971,0.00462795,-0.99943441,-0.00021355,-0.00004568,0.00317335,-0.00000689,0.00000415,-0.00099937,-0.00000162,0.00000046,0.00000293,,,,,,,,,,,,,,,,,,,,,,,
S,-0.5,1730147509365676800,,,,,,,,,,,,,,0.99924529,-0.00207993,-0.00271792,0.03869440,-55.80578995,0.00614258,0.00080167,0.00068871,0.15880738,0.00396791,0.00006389,-0.00263511,-0.03359171,0.02017020,-9.78991413,0.01795738,-0.02254036,-0.00997639,0.05154909,-0.04271057,9.77993774,0.15853882,0.00000000
S,-0.5,1730147509362421248,,-0.00543218,0.00656851,-0.99953097,-0.00388955,0.00192298,0.00601050,-0.00000500,0.00000703,-0.00099970,-0.00000292,0.00000080,0.00000627,,,,,,,,,,,,,,,,,,,,,,,
S,-0.5,1730147509363420160,,-0.00463445,0.00511072,-1.00089049,-0.00219445,0.00484680,0.00572929,-0.00000471,0.00000599,-0.00100067,-0.00000367,0.00000494,0.00000668,,,,,,,,,,,,,,,,,,,,,,,
S,-0.5,1730147509367677440,,,,,,,,,,,,,,0.99924529,-0.00207993,-0.00271792,0.03869440,-55.80578995,0.00614258,0.00080167,0.00068871,0.15880738,0.00010992,-0.00198768,-0.00023026,-0.06755412,0.04065059,-9.80046844,-0.01600503,-0.00205997,-0.02053070,0.05154909,-0.04271057,9.77993774,0.15853882,0.00000000
S,-0.5,1730147509364424448,,-0.00792021,0.00247130,-0.99998891,0.00036855,0.00270612,0.00478872,-0.00000707,0.00000249,-0.00100059,0.00000044,0.00000403,0.00000487,,,,,,,,,,,,,,,,,,,,,,,
S,-0.5,1730147509365427712,,-0.00814843,0.00294975,-1.00039256,-0.00172788,0.00236660,0.00157780,-0.00000915,0.00000202,-0.00100003,-0.00000053,0.00000175,0.00000186,,,,,,,,,,,,,,,,,,,,,,,
S,-0.5,1730147509369676800,,,,,,,,,,,,,,0.99924529,-0.00207993,-0.00271792,0.03869440,-55.80578995,0.00614258,0.00080167,0.00068871,0.15880738,-0.00193860,0.00249820,0.00352537,-0.04615613,0.05877462,-9.81326294,0.00539296,0.01606406,-0.03332520,0.05154909,-0.04271057,9.77993774,0.15853882,0.00000000
S,-0.5,1730147509366430208,,-0.00448756,0.00482864,-0.99787861,-0.00423090,0.00326202,0.00522825,-0.00000523,0.00000464,-0.00099846,-0.00000444,0.00000299,0.00000354,,,,,,,,,,,,,,,,,,,,,,,
S,-0.5,1730147509367431680,,-0.00359989,0.00594408,-0.99664223,-0.00533035,0.00200963,0.00550022,-0.00000260,0.00000634,-0.00099607,-0.00000593,0.00000252,0.00000661,,,,,,,,,,,,,,,,,,,,,,,
S,-0.5,1730147509371674368,,,,,,,,,,,,,,0.99924529,-0.00207993,-0.00271792,0.03869440,-55.80578995,0.00614258,0.00080167,0.00068871,0.15880738,0.00120279,-0.00069713,-0.00129631,-0.08976071,0.01983640,-9.80696487,-0.03821161,-0.02287417,-0.02702713,0.05154909,-0.04271057,9.77993774,0.15853882,0.00000000
S,-0.5,1730147509368432640,,-0.00632029,0.00385610,-0.99739271,-0.00175071,0.00103254,0.00486202,-0.00000554,0.00000459,-0.00099686,-0.00000275,0.00000081,0.00000506,,,,,,,,,,,,,,,,,,,,,,,
S,-0.5,1730147509369432576,,-0.00734238,0.00412761,-0.99983168,0.00078388,0.00036353,0.00167494,-0.00000802,0.00000341,-0.00099963,0.00000146,0.00000017,0.00000205,,,,,,,,,,,,,,,,,,,,,,,
S,-0.5,1730147509373670144,,,,,,,,,,,,,,0.99924529,-0.00207993,-0.00271792,0.03869440,-55.80578995,0.00614258,0.00080167,0.00068871,0.15880738,-0.00419339,0.00007818,0.00345467,-0.02545722,0.06217033,-9.76807785,0.02609187,0.01945977,0.01185989,0.05154909,-0.04271057,9.77993774,0.15853882,0.00000000
S,-0.5,1730147509370431488,,-0.00592009,0.00307738,-1.00033164,0.00198376,0.00061253,0.00435040,-0.00000650,0.00000335,-0.00100102,0.00000257,0.00000035,0.00000285,,,,,,,,,,,,,,,,,,,,,,,
S,-0.5,1730147509371433984,,-0.00275064,0.00340839,-1.00132716,0.00073830,0.00029506,0.00555768,-0.00000287,0.00000301,-0.00100131,0.00000135,0.00000043,0.00000619,,,,,,,,,,,,,,,,,,,,,,,
S,-0.5,1730147509375668736,,,,,,,,,,,,,,0.99924529,-0.00207993,-0.00271792,0.03869440,-55.80578995,0.00614258,0.00080167,0.00068871,0.15880738,0.00319674,-0.00226995,-0.00110726,-0.07867543,0.03347307,-9.80299568,-0.02712634,-0.00923749,-0.02305794,0.05154909,-0.04271057,9.77993774,0.15853882,0.00000000
S,-0.5,1730147509372435712,,-0.00167037,0.00204279,-1.00132048,-0.00003582,0.00372929,0.00734336,-0.00000086,0.00000240,-0.00100164,-0.00000029,0.00000300,0.00000740,,,,,,,,,,,,,,,,,,,,,,,
S,-0.5,1730147509373436416,,-0.00599920,0.00080155,-1.00141907,-0.00150124,0.00099233,0.00639642,-0.00000487,0.00000059,-0.00100140,-0.00000148,0.00000258,0.00000714,,,,,,,,,,,,,,,,,,,,,,,
S,-0.5,1730147509377665024,,,,,,,,,,,,,,0.99924529,-0.00207993,-0.00271792,0.03869440,-55.80578995,0.00614258,0.00080167,0.00068871,0.15880738,0.00308046,-0.00201202,0.00303185,-0.02818196,0.02955780,-9.81945133,0.02336713,-0.01315277,-0.03951359,0.05154909,-0.04271057,9.77993774,0.15853882,0.00000000
S,-0.5,1730147509374436352,,-0.00611067,0.00302163,-1.00058377,-0.00517307,-0.00086102,0.00358576,-0.00000747,0.00000222,-0.00100077,-0.00000497,-0.00000140,0.00000380,,,,,,,,,,,,,,,,,,,,,,,
S,-0.5,1730147509375435264,,-0.00626106,0.00180015,-0.99861717,-0.00457114,0.00562338,0.00487666,-0.00000627,0.00000273,-0.00099871,-0.00000585,0.00000386,0.00000375,,,,,,,,,,,,,,,,,,,,,,,
S,-0.5,1730147509379665664,,,,,,,,,,,,,,0.99924529,-0.00207993,-0.00271792,0.03869440,-55.80578995,0.00614258,0.00080167,0.00068871,0.15880738,0.00025254,0.00013874,0.00397876,-0.04774731,0.00581023,-9.82037067,0.00380179,-0.03690033,-0.04043293,0.05154909,-0.04271057,9.77993774,0.15853882,0.00000000
S,-0.5,1730147509376439296,,-0.00737817,0.00182885,-0.99831319,-0.00413130,0.00524329,0.00414540,-0.00000722,0.00000143,-0.00099774,-0.00000402,0.00000738,0.00000469,,,,,,,,,,,,,,,,,,,,,,,
S,-0.5,1730147509377442304,,-0.00670435,0.00437418,-0.99939471,-0.00049956,0.00253595,0.00245941,-0.00000718,0.00000392,-0.00099910,-0.00000102,0.00000291,0.00000253,,,,,,,,,,,,,,,,,,,,,,,
S,-0.5,1730147509381665024,,,,,,,,,,,,,,0.99924529,-0.00207993,-0.00271792,0.03869440,-55.80578995,0.00614258,0.00080167,0.00068871,0.15880738,-0.00411535,0.00141127,0.00058934,-0.06147571,0.02676067,-9.79398632,-0.00992661,-0.01594989,-0.01404858,0.05154909,-0.04271057,9.77993774,0.15853882,0.00000000
S,-0.5,1730147509378444544,,-0.00522643,0.00366398,-0.99931276,-0.00062119,-0.00587160,0.00487973,-0.00000528,0.00000460,-0.00099967,0.00000056,-0.00000521,0.00000390,,,,,,,,,,,,,,,,,,,,,,,
S,-0.5,1730147509379446016,,-0.00509613,0.00390348,-1.00127542,0.00158139,0.00062802,0.00030555,-0.00000465,0.00000363,-0.00100089,0.00000114,-0.00000323,0.00000191,,,,,,,,,,,,,,,,,,,,,,,
S,-0.5,1730147509383662336,,,,,,,,,,,,,,0.99924529,-0.00207993,-0.00271792,0.03869440,-55.80578995,0.00614258,0.00080167,0.00068871,0.15880738,0.00071454,0.00046284,-0.00062513,-0.07043860,0.03844803,-9.79783821,-0.01888951,-0.00426254,-0.01790047,0.05154909,-0.04271057,9.77993774,0.15853882,0.00000000
S,-0.5,1730147509380446464,,-0.00353672,0.00608651,-1.00084269,-0.00353424,0.00324109,-0.00031991,-0.00000378,0.00000577,-0.00100155,-0.00000190,0.00000484,-0.00000166,,,,,,,,,,,,,,,,,,,,,,,
S,-0.5,1730147509381446144,,-0.00300277,0.00517200,-0.99993247,-0.00382152,0.00052409,0.00284520,-0.00000260,0.00000603,-0.00099996,-0.00000540,0.00000185,0.00000207,,,,,,,,,,,,,,,,,,,,,,,
S,-0.5,1730147509385658112,,,,,,,,,,,,,,0.99924529,-0.00207993,-0.00271792,0.03869440,-55.19805527,0.00614258,0.00080167,0.00068871,0.15880738,0.00287642,-0.00567312,-0.00125106,-0.04559309,0.03563590,-9.81540585,0.00595600,-0.00707466,-0.03546810,0.05154909,-0.04271057,9.77993774,0.76627350,0.00000000
S,-0.5,1730147509382445056,,-0.00235443,0.00154545,-0.99975181,-0.00401480,-0.00042155,0.00122367,-0.00000230,0.00000191,-0.00099949,-0.00000407,-0.00000111,0.00000253,,,,,,,,,,,,,,,,,,,,,,,
S,-0.5,1730147509383447808,,-0.00379778,0.00119370,-1.00000715,-0.00432377,0.00037676,0.00296139,-0.00000333,0.00000010,-0.00099990,-0.00000433,-0.00000007,0.00000213,,,,,,,,,,,,,,,,,,,,,,,
S,-0.5,1730147509387657216,,,,,,,,,,,,,,0.99924529,-0.00207993,-0.00271792,0.03869440,-55.19805527,0.00614258,0.00080167,0.00068871,0.15880738,-0.00366373,-0.00059451,-0.00108706,-0.02553311,0.05916679,-9.80625820,0.02601598,0.01645623,-0.02632046,0.05154909,-0.04271057,9.77993774,0.76627350,0.00000000
S,-0.5,1730147509384450304,,-0.00532287,0.00009900,-1.00175297,-0.00530901,0.00335924,0.00528031,-0.00000550,0.00000019,-0.00100152,-0.00000523,0.00000307,0.00000541,,,,,,,,,,,,,,,,,,,,,,,
S,-0.5,1730147509385451776,,-0.00561739,0.00232652,-0.99826550,-0.00376031,0.00165080,0.00714508,-0.00000605,0.00000157,-0.00099945,-0.00000436,0.00000291,0.00000754,,,,,,,,,,,,,,,,,,,,,,,
S,-0.5,1730147509389654528,,,,,,,,,,,,,,0.99924529,-0.00207993,-0.00271792,0.03869440,-55.19805527,0.00614258,0.00080167,0.00068871,0.15880738,-0.00259522,-0.00251330,-0.00102859,-0.03264712,0.00101269,-9.80570126,0.01890197,-0.04169787,-0.02576351,0.05154909,-0.04271057,9.77993774,0.76627350,0.00000000
S,-0.5,1730147509386452224,,-0.00610237,0.00503299,-0.99982309,0.00154333,0.00105063,0.00843214,-0.00000611,0.00000525,-0.00099843,0.00000107,0.00000062,0.00000879,,,,,,,,,,,,,,,,,,,,,,,
S,-0.5,1730147509387451904,,-0.00451057,0.00709769,-0.99778992,0.00113688,0.00247325,0.00119798,-0.00000495,0.00000758,-0.00099866,0.00000290,0.00000202,0.00000292,,,,,,,,,,,,,,,,,,,,,,,
S,-0.5,1730147509391650048,,,,,,,,,,,,,,0.99924529,-0.00207993,-0.00271792,0.03869440,-55.19805527,0.00614258,0.00080167,0.00068871,0.15880738,-0.00262137,0.00046654,0.00438630,-0.05932378,0.01542852,-9.80130386,-0.00777468,-0.02728204,-0.02136612,0.05154909,-0.04271057,9.77993774,0.76627350,0.00000000
S,-0.5,1730147509388456960,,-0.00287687,0.00598729,-0.99902362,-0.00240976,0.00316820,0.00026643,-0.00000267,0.00000685,-0.00099815,-0.00000189,0.00000349,-0.00000187,,,,,,,,,,,,,,,,,,,,,,,
S,-0.5,1730147509389461248,,-0.00406077,0.00326536,-1.00034702,-0.00172721,0.00367435,0.00463046,-0.00000333,0.00000341,-0.00100050,-0.00000298,0.00000380,0.00000354,,,,,,,,,,,,,,,,,,,,,,,
S,-0.5,1730147509393650688,,,,,,,,,,,,,,0.99924529,-0.00207993,-0.00271792,0.03869440,-55.19805527,0.00614258,0.00080167,0.00068871,0.15880738,0.00463287,-0.00042028,-0.00023606,-0.04858258,0.07437264,-9.79346180,0.00296652,0.03166208,-0.01352406,0.05154909,-0.04271057,9.77993774,0.76627350,0.00000000
S,-0.5,1730147509390465024,,-0.00710035,0.00273890,-1.00010407,-0.00202124,0.00568510,0.00869936,-0.00000692,0.00000197,-0.00100057,-0.00000175,0.00000548,0.00000935,,,,,,,,,,,,,,,,,,,,,,,
S,-0.5,1730147509391468032,,-0.00627196,0.00382714,-1.00012493,-0.00288493,0.00476606,0.00530525,-0.00000739,0.00000346,-0.00100004,-0.00000282,0.00000557,0.00000722,,,,,,,,,,,,,,,,,,,,,,,
S,-0.5,1730147509395649280,,,,,,,,,,,,,,0.99924529,-0.00207993,-0.00271792,0.03869440,-55.19805527,0.00614258,0.00080167,0.00068871,0.15880738,-0.00124621,0.00135958,0.00038293,-0.03261321,0.03340676,-9.81154728,0.01893588,-0.00930380,-0.03160954,0.05154909,-0.04271057,9.77993774,0.76627350,0.00000000
S,-0.5,1730147509392470016,,-0.00450330,0.00289099,-0.99852985,-0.00110725,0.00153733,0.00136023,-0.00000456,0.00000341,-0.00099883,-0.00000171,0.00000183,0.00000100,,,,,,,,,,,,,,,,,,,,,,,
S,-0.5,1730147509393470976,,-0.00287539,0.00286349,-1.00042105,-0.00163498,0.00502316,0.00229055,-0.00000261,0.00000257,-0.00099957,-0.00000097,0.00000336,0.00000087,,,,,,,,,,,,,,,,,,,,,,,
S,-0.5,1730147509397646336,,,,,,,,,,,,,,0.99924529,-0.00207993,-0.00271792,0.03869440,-55.19805527,0.00614258,0.00080167,0.00068871,0.15880738,-0.00108766,0.00312906,0.00405899,-0.07247104,0.03394989,-9.80708027,-0.02092195,-0.00876067,-0.02714252,0.05154909,-0.04271057,9.77993774,0.76627350,0.00000000
S,-0.5,1730147509394471168,,-0.00314796,0.00401499,-1.00066447,-0.00288436,0.00432068,0.00232276,-0.00000258,0.00000380,-0.00100122,-0.00000283,0.00000556,0.00000261,,,,,,,,,,,,,,,,,,,,,,,
S,-0.5,1730147509395473664,,-0.00532058,0.00284749,-0.99951863,-0.00375207,0.00635436,0.00128328,-0.00000501,0.00000343,-0.00099980,-0.00000399,0.00000576,0.00000148,,,,,,,,,,,,,,,,,,,,,,,
S,-0.5,1730147509399644672,,,,,,,,,,,,,,0.99924529,-0.00207993,-0.00271792,0.03869440,-55.19805527,0.00614258,0.00080167,0.00068871,0.15880738,0.00076069,0.00091807,-0.00229233,-0.02557632,0.02520736,-9.80243015,0.02597277,-0.01750320,-0.02249241,0.05154909,-0.04271057,9.77993774,0.76627350,0.00000000
S,-0.5,1730147509396475392,,-0.00506728,0.00328931,-1.00025666,-0.00126395,0.00639357,0.00168645,-0.00000580,0.00000284,-0.00099976,-0.00000199,0.00000703,0.00000128,,,,,,,,,,,,,,,,,,,,,,,
S,-0.5,1730147509397476096,,-0.00548859,0.00287914,-1.00344479,-0.00164780,0.00610466,0.00078444,-0.00000533,0.00000309,-0.00100310,-0.00000079,0.00000617,0.00000108,,,,,,,,,,,,,,,,,,,,,,,
S,-0.5,1730147509401641216,,,,,,,,,,,,,,0.99924529,-0.00207993,-0.00271792,0.03869440,-55.19805527,0.00614258,0.00080167,0.00068871,0.15880738,-0.00225817,0.00331723,-0.00167571,-0.04915662,0.03359998,-9.80473042,0.00239247,-0.00911058,-0.02479267,0.05154909,-0.04271057,9.77993774,0.76627350,0.00000000
S,-0.5,1730147509398475776,,-0.00748271,0.00379164,-1.00220537,-0.00559015,0.00307647,-0.00038435,-0.00000725,0.00000350,-0.00100345,-0.00000500,0.00000353,-0.00000046,,,,,,,,,,,,,,,,,,,,,,,
S,-0.5,1730147509399474688,,-0.00672836,0.00152352,-1.00205553,-0.00436535,-0.00060950,0.00249108,-0.00000750,0.00000223,-0.00100169,-0.00000584,-0.00000090,0.00000160,,,,,,,,,,,,,,,,,,,,,,,
S,-0.5,1730147509403636480,,,,,,,,,,,,,,0.99924529,-0.00207993,-0.00271792,0.03869440,-55.19805527,0.00614258,0.00080167,0.00068871,0.15880738,0.00094788,0.00372562,-0.00208145,-0.05228407,0.03034368,-9.83705425,-0.00073498,-0.01236689,-0.05711651,0.05154909,-0.04271057,9.77993774,0.76627350,0.00000000
S,-0.5,1730147509400472832,,-0.00611632,0.00201003,-1.00094175,0.00024593,0.00012015,0.00393306,-0.00000599,0.00000120,-0.00100110,-0.00000020,-0.00000119,0.00000459,,,,,,,,,,,,,,,,,,,,,,,
S,-0.5,1730147509401478656,,-0.00578637,0.00147007,-1.00143981,0.00018374,0.00020051,0.00392770,-0.00000565,0.00000172,-0.00100099,0.00000166,0.00000042,0.00000439,,,,,,,,,,,,,,,,,,,,,,,
S,-0.5,1730147509405640704,,,,,,,,,,,,,,0.99924529,-0.00207993,-0.00271792,0.03869440,-55.19805527,0.00614258,0.00080167,0.00068871,0.15880738,-0.00410883,-0.00334771,-0.00156150,-0.07355507,0.02183104,-9.82320595,-0.02200598,-0.02087952,-0.04326820,0.05154909,-0.04271057,9.77993774,0.76627350,0.00000000
S,-0.5,1730147509402486272,,-0.00775488,0.00159714,-0.99953055,-0.00045950,0.00278991,0.00833685,-0.00000729,0.00000140,-0.00100004,-0.00000036,0.00000235,0.00000753,,,,,,,,,,,,,,,,,,,,,,,
S,-0.5,1730147509403492864,,-0.00793307,0.00157894,-0.99864471,0.00016747,0.00591779,0.00475784,-0.00000853,0.00000162,-0.00099820,-0.00000015,0.00000617,0.00000681,,,,,,,,,,,,,,,,,,,,,,,
S,-0.5,1730147509407642880,,,,,,,,,,,,,,0.99924529,-0.00207993,-0.00271792,0.03869440,-55.19805527,0.00614258,0.00080167,0.00068871,0.15880738,0.00339679,-0.00202585,0.00122956,-0.05542095,0.01689568,-9.81640625,-0.00387186,-0.02581489,-0.03646851,0.05154909,-0.04271057,9.77993774,0.76627350,0.00000000
S,-0.5,1730147509404498688,,-0.00540705,0.00321266,-0.99821979,-0.00035831,0.00762679,0.00182097,-0.00000592,0.00000291,-0.00099802,-0.00000006,0.00000831,0.00000122,,,,,,,,,,,,,,,,,,,,,,,
S,-0.5,1730147509405503488,,-0.00567717,0.00334967,-0.99911964,0.00084487,0.00410036,0.00302538,-0.00000482,0.00000384,-0.00099882,0.00000046,0.00000529,0.00000187,,,,,,,,,,,,,,,,,,,,,,,
S,-0.5,1730147509409644032,,,,,,,,,,,,,,0.99924529,-0.00207993,-0.00271792,0.03869440,-55.19805527,0.00614258,0.00080167,0.00068871,0.15880738,0.00158274,0.00372970,0.00365347,-0.08362100,0.01591299,-9.78897762,-0.03207191,-0.02679757,-0.00903988,0.05154909,-0.04271057,9.77993774,0.76627350,0.00000000
S,-0.5,1730147509406507776,,-0.00680845,0.00457016,-1.00075328,-0.00292416,0.00319024,0.00366685,-0.00000669,0.00000439,-0.00100074,-0.00000186,0.00000223,0.00000393,,,,,,,,,,,,,,,,,,,,,,,
S,-0.5,1730147509407511040,,-0.00878672,0.00412019,-1.00030041,-0.00399650,0.00302417,0.00440542,-0.00000879,0.00000459,-0.00100090,-0.00000500,0.00000276,0.00000448,,,,,,,,,,,,,,,,,,,,,,,
S,-0.5,1730147509411643136,,,,,,,,,,,,,,0.99924529,-0.00207993,-0.00271792,0.03869440,-55.19805527,0.00614258,0.00080167,0.00068871,0.15880738,0.00219284,0.00284105,-0.00128639,-0.04731013,0.03770427,-9.79508781,0.00423897,-0.00500629,-0.01515007,0.05154909,-0.04271057,9.77993774,0.76627350,0.00000000
S,-0.5,1730147509408513536,,-0.00642005,0.00216245,-0.99821681,0.00075105,0.00274311,0.00614877,-0.00000748,0.00000237,-0.00099845,-0.00000045,0.00000274,0.00000607,,,,,,,,,,,,,,,,,,,,,,,
S,-0.5,1730147509409515264,,-0.00361168,0.00259537,-0.99767113,-0.00003382,0.00209338,0.00789129,-0.00000337,0.00000189,-0.00099711,0.00000162,0.00000212,0.00000813,,,,,,,,,,,,,,,,,,,,,,,
S,-0.5,1730147509413641216,,,,,,,,,,,,,,0.99924529,-0.00207993,-0.00271792,0.03869440,-55.19805527,0.00614258,0.00080167,0.00068871,0.15880738,-0.00326745,0.00032062,0.00131730,-0.08617433,0.04501940,-9.81550217,-0.03462524,0.00230884,-0.03556442,0.05154909,-0.04271057,9.77993774,0.76627350,0.00000000
S,-0.5,1730147509410516224,,-0.00367383,0.00226616,-0.99847496,-0.00187009,0.00053663,0.00530568,-0.00000277,0.00000246,-0.00099816,-0.00000179,0.00000061,0.00000633,,,,,,,,,,,,,,,,,,,,,,,
S,-0.5,1730147509411516160,,-0.00580611,0.00094157,-0.99859554,0.00068260,0.00277272,0.00356881,-0.00000544,0.00000108,-0.00099883,-0.00000037,0.00000187,0.00000306,,,,,,,,,,,,,,,,,,,,,,,
S,-0.5,1730147509415637248,,,,,,,,,,,,,,0.99924529,-0.00207993,-0.00271792,0.03869440,-55.19805527,0.00614258,0.00080167,0.00068871,0.15880738,0.00335392,-0.00032205,0.00497151,-0.03303519,0.01856762,-9.77828026,0.01851390,-0.02414294,0.00165749,0.05154909,-0.04271057,9.77993774,0.76627350,0.00000000
S,-0.5,1730147509412519168,,-0.00632629,0.00179755,-0.99831283,-0.00108071,0.00260080,0.00550603,-0.00000691,0.00000122,-0.00099840,0.00000005,0.00000334,0.00000460,,,,,,,,,,,,,,,,,,,,,,,
S,-0.5,1730147509413521408,,-0.00552742,0.00224487,-0.99989045,-0.00344789,0.00271914,0.00528528,-0.00000584,0.00000244,-0.00099951,-0.00000358,0.00000264,0.00000594,,,,,,,,,,,,,,,,,,,,,,,
S,-0.5,1730147509417641472,,,,,,,,,,,,,,0.99924529,-0.00207993,-0.00271792,0.03869440,-55.19805527,0.00614258,0.00080167,0.00068871,0.15880738,0.00136824,-0.00057310,-0.00009676,-0.05333226,0.01056492,-9.79517078,-0.00178317,-0.03214564,-0.01523304,0.05154909,-0.04271057,9.77993774,0.76627350,0.00000000
S,-0.5,1730147509414529024,,-0.00597594,0.00097278,-1.00175536,-0.00623579,0.00323073,0.00504059,-0.00000564,0.00000135,-0.00100192,-0.00000648,0.00000318,0.00000501,,,,,,,,,,,,,,,,,,,,,,,
S,-0.5,1730147509415535616,,-0.00584000,0.00030562,-1.00120854,-0.00756454,0.00067371,0.00518118,-0.00000601,0.00000002,-0.00100190,-0.00000821,0.00000130,0.00000508,,,,,,,,,,,,,,,,,,,,,,,
S,-0.5,1730147509419643904,,,,,,,,,,,,,,0.99924529,-0.00207993,-0.00271792,0.03869440,-55.19805527,0.00614258,0.00080167,0.00068871,0.15880738,-0.00184513,0.00019889,0.00278391,-0.05725317,0.02389261,-9.80188274,-0.00570408,-0.01881796,-0.02194500,0.05154909,-0.04271057,9.77993774,0.76627350,0.00000000
S,-0.5,1730147509416541440,,-0.00528113,0.00158967,-1.00041723,-0.00536496,0.00378295,0.00377635,-0.00000534,0.00000114,-0.00100039,-0.00000619,0.00000240,0.00000408,,,,,,,,,,,,,,,,,,,,,,,
S,-0.5,1730147509417546240,,-0.00670148,0.00209743,-1.00044143,-0.00155555,0.00805485,0.00209312,-0.00000627,0.00000241,-0.00100019,-0.00000155,0.00000827,0.00000195,,,,,,,,,,,,,,,,,,,,,,,
S,-0.5,1730147509421644544,,,,,,,,,,,,,,0.99924529,-0.00207993,-0.00271792,0.03869440,-55.19805527,0.00614258,0.00080167,0.00068871,0.15880738,-0.00647659,-0.00114288,0.00191964,-0.05891471,0.00021635,-9.82529831,-0.00736562,-0.04249422,-0.04536057,0.05154909,-0.04271057,9.77993774,0.76627350,0.00000000
S,-0.5,1730147509418550784,,-0.00734183,0.00326698,-0.99904275,-0.00306708,0.00485277,0.00411900,-0.00000768,0.00000322,-0.00099930,-0.00000158,0.00000679,0.00000322,,,,,,,,,,,,,,,,,,,,,,,
S,-0.5,1730147509419554560,,-0.00755156,0.00470052,-0.99856871,-0.00530794,-0.00597767,0.00373706,-0.00000772,0.00000481,-0.00099821,-0.00000538,-0.00000503,0.00000445,,,,,,,,,,,,,,,,,,,,,,,
S,-0.5,1730147509423644416,,,,,,,,,,,,,,0.99924529,-0.00207993,-0.00271792,0.03869440,-55.19805527,0.00614258,0.00080167,0.00068871,0.15880738,0.00018640,0.00582438,-0.00120634,-0.06143904,0.02366848,-9.80846596,-0.00988995,-0.01904208,-0.02852821,0.05154909,-0.04271057,9.77993774,0.76627350,0.00000000
S,-0.5,1730147509420557312,,-0.00824130,0.00403184,-0.99911028,-0.00365423,0.00109017,0.00256080,-0.00000818,0.00000461,-0.00099886,-0.00000467,-0.00000364,0.00000265,,,,,,,,,,,,,,,,,,,,,,,
S,-0.5,1730147509421559040,,-0.00604113,0.00397352,-1.00059903,-0.00305229,-0.00006560,0.00388460,-0.00000666,0.00000377,-0.00100050,-0.00000264,0.00000239,0.00000327,,,,,,,,,,,,,,,,,,,,,,,
S,-0.5,1730147509425642496,,,,,,,,,,,,,,0.99924529,-0.00207993,-0.00271792,0.03869440,-56.13343811,0.00614258,0.00080167,0.00068871,0.15880738,-0.00364798,-0.00747315,0.00129321,-0.07569031,0.04719602,-9.78909302,-0.02414122,0.00448545,-0.00915527,0.05154909,-0.04271057,9.77993774,-0.16910934,0.00000000
S,-0.5,1730147509422560512,,-0.00498070,0.00295038,-1.00111091,0.00042847,0.00406151,0.00424386,-0.00000447,0.00000312,-0.00100149,-0.00000001,0.00000294,0.00000460,,,,,,,,,,,,,,,,,,,,,,,
S,-0.5,1730147509423561216,,-0.00559658,0.00134095,-1.00057936,0.00028910,0.00281200,0.00274691,-0.00000515,0.00000131,-0.00100084,0.00000142,0.00000435,0.00000313,,,,,,,,,,,,,,,,,,,,,,,
S,-0.5,1730147509427639040,,,,,,,,,,,,,,0.99924529,-0.00207993,-0.00271792,0.03869440,-56.13343811,0.00614258,0.00080167,0.00068871,0.15880738,-0.00090133,-0.00004986,0.00011156,-0.06531157,0.03698190,-9.81156254,-0.01376247,-0.00572867,-0.03162479,0.05154909,-0.04271057,9.77993774,-0.16910934,0.00000000
S,-0.5,1730147509424560896,,-0.00637035,0.00315438,-1.00045311,0.00210837,0.00352425,0.00485555,-0.00000643,0.00000231,-0.00100031,0.00000173,0.00000300,0.00000400,,,,,,,,,,,,,,,,,,,,,,,
S,-0.5,1730147509425563136,,-0.00515367,0.00304485,-1.00047565,-0.00194097,0.00150540,0.00437275,-0.00000562,0.00000364,-0.00100043,-0.00000063,0.00000210,0.00000513,,,,,,,,,,,,,,,,,,,,,,,
S,-0.5,1730147509429637376,,,,,,,,,,,,,,0.99924529,-0.00207993,-0.00271792,0.03869440,-56.13343811,0.00614258,0.00080167,0.00068871,0.15880738,0.00315632,0.00190871,-0.00002486,-0.05047505,0.01282288,-9.81487656,0.00107404,-0.02988769,-0.03493881,0.05154909,-0.04271057,9.77993774,-0.16910934,0.00000000
S,-0.5,1730147509426571776,,-0.00501578,0.00466230,-1.00079668,-0.00221707,0.00476688,-0.00175519,-0.00000465,0.00000433,-0.00100075,-0.00000346,0.00000353,-0.00000080,,,,,,,,,,,,,,,,,,,,,,,
S,-0.5,1730147509427579904,,-0.00457185,0.00529552,-1.00090086,-0.00295820,0.00291242,0.00408677,-0.00000461,0.00000570,-0.00100098,-0.00000291,0.00000429,0.00000107,,,,,,,,,,,,,,,,,,,,,,,
S,-0.5,1730147509431641600,,,,,,,,,,,,,,0.99924529,-0.00207993,-0.00271792,0.03869440,-56.13343811,0.00614258,0.00080167,0.00068871,0.15880738,0.00110779,-0.00034510,0.00197356,-0.05512422,0.03571764,-9.81088066,-0.00357512,-0.00699292,-0.03094292,0.05154909,-0.04271057,9.77993774,-0.16910934,0.00000000
S,-0.5,1730147509428587008,,-0.00510550,0.00295986,-0.99884534,-0.00170840,0.00278504,0.00660258,-0.00000487,0.00000359,-0.00099925,-0.00000217,0.00000222,0.00000801,,,,,,,,,,,,,,,,,,,,,,,
S,-0.5,1730147509429593088,,-0.00469203,0.00264009,-0.99674785,-0.00195480,0.00429856,0.00457044,-0.00000494,0.00000195,-0.00099647,-0.00000151,0.00000398,0.00000574,,,,,,,,,,,,,,,,,,,,,,,
S,-0.5,1730147509433643520,,,,,,,,,,,,,,0.99924529,-0.00207993,-0.00271792,0.03869440,-56.13343811,0.00614258,0.00080167,0.00068871,0.15880738,-0.00117749,0.00184350,-0.00208335,-0.04519441,0.05585156,-9.81630135,0.00635468,0.01314100,-0.03636360,0.05154909,-0.04271057,9.77993774,-0.16910934,0.00000000
S,-0.5,1730147509430598400,,-0.00630851,0.00274686,-0.99748772,-0.00155481,0.00409739,0.00067836,-0.00000588,0.00000263,-0.00099669,-0.00000171,0.00000462,0.00000074,,,,,,,,,,,,,,,,,,,,,,,
S,-0.5,1730147509431602688,,-0.00612718,0.00297282,-0.99911016,-0.00083033,0.00264664,-0.00067902,-0.00000667,0.00000297,-0.00099905,-0.00000083,0.00000285,-0.00000167,,,,,,,,,,,,,,,,,,,,,,,
S,-0.5,1730147509435643648,,,,,,,,,,,,,,0.99924529,-0.00207993,-0.00271792,0.03869440,-56.13343811,0.00614258,0.00080167,0.00068871,0.15880738,0.00022173,0.00153901,0.00258236,-0.04841417,0.01916877,-9.77207756,0.00313492,-0.02354180,0.00786018,0.05154909,-0.04271057,9.77993774,-0.16910934,0.00000000
S,-0.5,1730147509432605952,,-0.00720394,0.00295143,-0.99992937,0.00050052,0.00415369,0.00466866,-0.00000695,0.00000303,-0.00100030,0.00000049,0.00000342,0.00000326,,,,,,,,,,,,,,,,,,,,,,,
S,-0.5,1730147509433608192,,-0.00639370,0.00283137,-0.99953645,-0.00171605,0.00256128,0.00585091,-0.00000688,0.00000285,-0.00099987,-0.00000089,0.00000333,0.00000734,,,,,,,,,,,,,,,,,,,,,,,
S,-0.5,1730147509437641984,,,,,,,,,,,,,,0.99924529,-0.00207993,-0.00271792,0.03869440,-56.13343811,0.00614258,0.00080167,0.00068871,0.15880738,0.00089929,0.00040218,-0.00482940,-0.06545763,0.02908332,-9.79734230,-0.01390854,-0.01362725,-0.01740456,0.05154909,-0.04271057,9.77993774,-0.16910934,0.00000000
S,-0.5,1730147509434609408,,-0.00520626,0.00335634,-0.99941522,0.00031270,0.00348274,0.00745083,-0.00000516,0.00000322,-0.00099931,-0.00000076,0.00000281,0.00000754,,,,,,,,,,,,,,,,,,,,,,,
S,-0.5,1730147509435609856,,-0.00408075,0.00403617,-1.00052428,-0.00222094,0.00382540,0.00481982,-0.00000391,0.00000408,-0.00100028,-0.00000111,0.00000406,0.00000581,,,,,,,,,,,,,,,,,,,,,,,
S,-0.5,1730147509439638528,,,,,,,,,,,,,,0.99924529,-0.00207993,-0.00271792,0.03869440,-56.13343811,0.00614258,0.00080167,0.00068871,0.15880738,0.00084425,0.00088630,0.00418022,-0.06750561,0.02791461,-9.80536175,-0.01595652,-0.01479595,-0.02542400,0.05154909,-0.04271057,9.77993774,-0.16910934,0.00000000
S,-0.5,1730147509436609280,,-0.00370910,0.00331572,-0.99918318,-0.00183756,0.00337185,0.00142559,-0.00000342,0.00000366,-0.00099978,-0.00000271,0.00000356,0.00000120,,,,,,,,,,,,,,,,,,,,,,,
S,-0.5,1730147509437611264,,-0.00476669,0.00356144,-0.99889553,-0.00143001,0.00204006,-0.00030625,-0.00000446,0.00000329,-0.00099852,-0.00000138,0.00000214,-0.00000107,,,,,,,,,,,,,,,,,,,,,,,
S,-0.5,1730147509441637120,,,,,,,,,,,,,,0.99924529,-0.00207993,-0.00271792,0.03869440,-56.13343811,0.00614258,0.00080167,0.00068871,0.15880738,0.00061911,0.00161244,0.00264901,-0.03831625,0.04000899,-9.80943680,0.01323284,-0.00270157,-0.02949905,0.05154909,-0.04271057,9.77993774,-0.16910934,0.00000000
S,-0.5,1730147509438612992,,-0.00581686,0.00321926,-1.00135708,-0.00198676,0.00072944,0.00138293,-0.00000596,0.00000336,-0.00100082,-0.00000176,0.00000054,0.00000052,,,,,,,,,,,,,,,,,,,,,,,
S,-0.5,1730147509439613952,,-0.00466672,0.00307201,-1.00055492,-0.00497157,0.00457636,0.00173575,-0.00000521,0.00000299,-0.00100148,-0.00000461,0.00000346,0.00000221,,,,,,,,,,,,,,,,,,,,,,,
S,-0.5,1730147509443639552,,,,,,,,,,,,,,0.99924529,-0.00207993,-0.00271792,0.03869440,-56.13343811,0.00614934,0.00080268,0.00069038,0.15880726,0.00035191,-0.00030635,-0.00423012,-0.04370196,0.03223792,-9.79214478,0.00784713,-0.01047264,-0.01220703,0.05154909,-0.04271057,9.77993774,-0.16910934,0.00000000
S,-0.5,1730147509440619520,,-0.00490829,0.00271650,-1.00093770,-0.00301698,0.00357046,0.00699302,-0.00000450,0.00000273,-0.00100061,-0.00000432,0.00000498,0.00000615,,,,,,,,,,,,,,,,,,,,,,,
S,-0.5,1730147509441624064,,-0.00735391,0.00384914,-1.00110328,-0.00207939,0.00356045,0.00846943,-0.00000699,0.00000353,-0.00100120,-0.00000163,0.00000324,0.00000987,,,,,,,,,,,,,,,,,,,,,,,
S,-0.5,1730147509445640192,,,,,,,,,,,,,,0.99924529,-0.00207993,-0.00271792,0.03869440,-56.13343811,0.00614934,0.00080268,0.00069038,0.15880726,-0.00287254,0.00101621,-0.00094878,-0.05108993,0.02932270,-9.82120514,0.00045916,-0.01338787,-0.04126740,0.05154909,-0.04271057,9.77993774,-0.16910934,0.00000000
S,-0.5,1730147509442627840,,-0.00515805,0.00346202,-0.99965560,0.00117932,0.00256147,0.00463108,-0.00000634,0.00000389,-0.00099997,0.00000089,0.00000274,0.00000580,,,,,,,,,,,,,,,,,,,,,,,
S,-0.5,1730147509443630592,,-0.00597855,0.00417641,-0.99981982,0.00283475,0.00496217,0.00355373,-0.00000513,0.00000392,-0.00099933,0.00000357,0.00000421,0.00000253,,,,,,,,,,,,,,,,,,,,,,,
S,-0.5,1730147509447639296,,,,,,,,,,,,,,0.99924529,-0.00207993,-0.00271792,0.03869440,-56.13343811,0.00614934,0.00080268,0.00069038,0.15880726,0.00010637,0.00079807,0.00671651,-0.06851519,0.03461716,-9.81836891,-0.01696610,-0.00809340,-0.03843117,0.05154909,-0.04271057,9.77993774,-0.16910934,0.00000000
S,-0.5,1730147509444632832,,-0.00667299,0.00620906,-0.99944413,0.00045708,0.00078300,0.00393972,-0.00000681,0.00000607,-0.00099956,0.00000142,0.00000231,0.00000353,,,,,,,,,,,,,,,,,,,,,,,
S,-0.5,1730147509445634304,,-0.00555316,0.00634911,-0.99781537,-0.00121515,-0.00049605,0.00466404,-0.00000598,0.00000697,-0.00099799,-0.00000167,-0.00000159,0.00000466,,,,,,,,,,,,,,,,,,,,,,,
S,-0.5,1730147509449637120,,,,,,,,,,,,,,0.99924529,-0.00207993,-0.00271792,0.03869440,-56.13343811,0.00614934,0.00080268,0.00069038,0.15880726,0.00530519,0.00176399,-0.00063042,-0.05031187,0.03847304,-9.80007076,0.00123722,-0.00423752,-0.02013302,0.05154909,-0.04271057,9.77993774,-0.16910934,0.00000000
S,-0.5,1730147509446635008,,-0.00204985,0.00409563,-0.99905622,-0.00146066,-0.00096053,0.00208987,-0.00000233,0.00000455,-0.00099831,-0.00000195,-0.00000128,0.00000279,,,,,,,,,,,,,,,,,,,,,,,
S,-0.5,1730147509447634688,,-0.00290542,0.00319557,-0.99953926,0.00253646,0.00222669,0.00280369,-0.00000163,0.00000264,-0.00099985,0.00000173,0.00000150,0.00000185,,,,,,,,,,,,,,,,,,,,,,,
S,-0.5,1730147509451633408,,,,,,,,,,,,,,0.99924529,-0.00207993,-0.00271792,0.03869440,-56.13343811,0.00614934,0.00080268,0.00069038,0.15880726,0.00006578,-0.00403795,0.00149719,-0.05862409,0.06836155,-9.78695583,-0.00707500,0.02565099,-0.00701809,0.05154909,-0.04271057,9.77993774,-0.16910934,0.00000000
S,-0.5,1730147509448633600,,-0.00418612,0.00352426,-1.00093937,-0.00102781,0.00171265,0.00300595,-0.00000423,0.00000318,-0.00100084,0.00000089,0.00000282,0.00000320,,,,,,,,,,,,,,,,,,,,,,,
S,-0.5,1730147509449635840,,-0.00488156,0.00325373,-1.00003207,-0.00232416,0.00198651,0.00275925,-0.00000516,0.00000341,-0.00100064,-0.00000322,0.00000177,0.00000287,,,,,,,,,,,,,,,,,,,,,,,
S,-0.5,1730147509453632000,,,,,,,,,,,,,,0.99924529,-0.00207993,-0.00271792,0.03869440,-56.13343811,0.00614934,0.00080268,0.00069038,0.15880726,0.00346601,-0.00094426,-0.00130350,-0.01602998,0.02590420,-9.80514431,0.03551912,-0.01680637,-0.02520657,0.05154909,-0.04271057,9.77993774,-0.16910934,0.00000000
S,-0.5,1730147509450637056,,-0.00433544,0.00489219,-0.99945331,-0.00322765,0.00305114,0.00234058,-0.00000466,0.00000451,-0.00099927,-0.00000348,0.00000294,0.00000234,,,,,,,,,,,,,,,,,,,,,,,
S,-0.5,1730147509451637760,,-0.00567662,0.00456007,-0.99936640,-0.00316032,0.00350000,0.00462316,-0.00000526,0.00000514,-0.00099920,-0.00000346,0.00000376,0.00000408,,,,,,,,,,,,,,,,,,,,,,,
S,-0.5,1730147509455634176,,,,,,,,,,,,,,0.99924529,-0.00207993,-0.00271792,0.03869440,-56.13343811,0.00614934,0.00080268,0.00069038,0.15880726,-0.00148923,-0.00067089,-0.00028966,-0.05063131,0.03341961,-9.81295204,0.00091778,-0.00929096,-0.03301430,0.05154909,-0.04271057,9.77993774,-0.16910934,0.00000000
S,-0.5,1730147509452643328,,-0.00664312,0.00446993,-0.99787563,-0.00346841,0.00593244,-0.00010683,-0.00000689,0.00000438,-0.00099812,-0.00000339,0.00000563,0.00000148,,,,,,,,,,,,,,,,,,,,,,,
S,-0.5,1730147509453647872,,-0.00615306,0.00452704,-1.00003326,-0.00192285,0.00531099,0.00252976,-0.00000655,0.00000449,-0.00099917,-0.00000230,0.00000620,0.00000055,,,,,,,,,,,,,,,,,,,,,,,
S,-0.5,1730147509457634816,,,,,,,,,,,,,,0.99924529,-0.00207993,-0.00271792,0.03869440,-56.13343811,0.00614934,0.00080268,0.00069038,0.15880726,-0.00172621,0.00131332,0.00091706,-0.05157355,0.05042532,-9.79878521,-0.00002446,0.00771476,-0.01884747,0.05154909,-0.04271057,9.77993774,-0.16910934,0.00000000
S,-0.5,1730147509454651648,,-0.00629005,0.00515848,-1.00129092,-0.00313668,0.00166952,-0.00101795,-0.00000611,0.00000506,-0.00100175,-0.00000242,0.00000213,0.00000047,,,,,,,,,,,,,,,,,,,,,,,
S,-0.5,1730147509455654400,,-0.00695053,0.00329281,-1.00113451,-0.00072470,-0.00127117,-0.00069689,-0.00000687,0.00000383,-0.00100156,-0.00000155,-0.00000190,-0.00000188,,,,,,,,,,,,,,,,,,,,,,,
S,-0.5,1730147509459633408,,,,,,,,,,,,,,0.99924529,-0.00207993,-0.00271792,0.03869440,-56.13343811,0.00614934,0.00080268,0.00069038,0.15880726,-0.00056779,0.00375416,-0.00261299,-0.06423062,0.04401105,-9.79847813,-0.01268153,0.00130048,-0.01854038,0.05154909,-0.04271057,9.77993774,-0.16910934,0.00000000
S,-0.5,1730147509456656384,,-0.00665513,0.00467948,-1.00219440,-0.00335392,0.00083174,0.00164814,-0.00000692,0.00000383,-0.00100195,-0.00000211,-0.00000049,0.00000132,,,,,,,,,,,,,,,,,,,,,,,
S,-0.5,1730147509457657344,,-0.00474759,0.00403246,-1.00050569,0.00132302,0.00022719,0.00246127,-0.00000500,0.00000459,-0.00100115,-0.00000036,0.00000101,0.00000306,,,,,,,,,,,,,,,,,,,,,,,
S,-0.5,1730147509461630720,,,,,,,,,,,,,,0.99924529,-0.00207993,-0.00271792,0.03869440,-56.13343811,0.00614934,0.00080268,0.00069038,0.15880726,0.00018463,-0.00434001,-0.00504260,-0.06741550,0.03758600,-9.82198143,-0.01586641,-0.00512457,-0.04204369,0.05154909,-0.04271057,9.77993774,-0.16910934,0.00000000
S,-0.5,1730147509458657536,,-0.00523777,0.00430130,-0.99863064,0.00002102,0.00150298,0.00083233,-0.00000454,0.00000405,-0.00099843,0.00000175,0.00000108,0.00000139,,,,,,,,,,,,,,,,,,,,,,,
S,-0.5,1730147509459656704,,-0.00543992,0.00426922,-1.00078046,0.00136952,0.00322758,0.00354145,-0.00000556,0.00000436,-0.00099979,0.00000071,0.00000332,0.00000253,,,,,,,,,,,,,,,,,,,,,,,
S,-0.5,1730147509463626496,,,,,,,,,,,,,,0.99924529,-0.00207993,-0.00271792,0.03869440,-56.13343811,0.00614934,0.00080268,0.00069038,0.15880726,0.00137030,-0.00143761,-0.00009813,-0.04903339,0.04502487,-9.81792736,0.00251570,0.00231430,-0.03798962,0.05154909,-0.04271057,9.77993774,-0.16910934,0.00000000
S,-0.5,1730147509460655104,,-0.00502168,0.00303326,-0.99982691,-0.00126907,0.00077577,0.00451107,-0.00000516,0.00000325,-0.00100068,-0.00000036,0.00000177,0.00000520,,,,,,,,,,,,,,,,,,,,,,,
S,-0.5,1730147509461657088,,-0.00390948,0.00331897,-0.99903673,-0.00272370,0.00131351,0.00554589,-0.00000398,0.00000287,-0.00099888,-0.00000330,0.00000044,0.00000567,,,,,,,,,,,,,,,,,,,,,,,
S,-0.5,1730147509465625088,,,,,,,,,,,,,,0.99924529,-0.00207993,-0.00271792,0.03869440,-56.13343811,0.00614934,0.00080268,0.00069038,0.15880726,0.00244401,0.00087632,-0.00062738,-0.05451544,0.04276395,-9.80461979,-0.00296635,0.00005339,-0.02468204,0.05154909,-0.04271057,9.77993774,-0.16910934,0.00000000
S,-0.5,1730147509462658304,,-0.00439387,0.00239346,-0.99869990,-0.00475212,0.00264385,0.00579288,-0.00000395,0.00000265,-0.00099851,-0.00000485,0.00000257,0.00000608,,,,,,,,,,,,,,,,,,,,,,,
S,-0.5,1730147509463659264,,-0.00408027,0.00476214,-1.00128770,0.00044560,0.00145883,0.00146736,-0.00000429,0.00000404,-0.00100071,-0.00000114,0.00000210,0.00000233,,,,,,,,,,,,,,,,,,,,,,,
S,-0.5,1730147509467621888,,,,,,,,,,,,,,0.99924529,-0.00207993,-0.00271792,0.03869440,-55.73180389,0.00614934,0.00080268,0.00069038,0.15880726,-0.00156536,-0.00200864,0.00250841,-0.03901616,0.02818323,-9.79563522,0.01253293,-0.01452733,-0.01569748,0.05154909,-0.04271057,9.77993774,0.23252487,0.00000000
S,-0.5,1730147509464664576,,-0.00383015,0.00321307,-1.00158370,0.00026967,0.00049564,-0.00013199,-0.00000378,0.00000425,-0.00100235,0.00000196,0.00000029,-0.00000122,,,,,,,,,,,,,,,,,,,,,,,
S,-0.5,1730147509465668864,,-0.00429964,0.00198975,-1.00069463,-0.00059873,0.00392101,0.00415287,-0.00000413,0.00000172,-0.00100095,-0.00000050,0.00000299,0.00000287,,,,,,,,,,,,,,,,,,,,,,,
S,-0.5,1730147509469622016,,,,,,,,,,,,,,0.99924529,-0.00207993,-0.00271792,0.03869440,-55.73180389,0.00614934,0.00080268,0.00069038,0.15880726,0.00058949,-0.00034642,-0.00082623,-0.04208494,0.03958813,-9.81361580,0.00946415,-0.00312244,-0.03367805,0.05154909,-0.04271057,9.77993774,0.23252487,0.00000000
S,-0.5,1730147509466672384,,-0.00503575,0.00206705,-0.99941337,-0.00415474,0.00419813,0.00468191,-0.00000505,0.00000166,-0.00099936,-0.00000379,0.00000524,0.00000595,,,,,,,,,,,,,,,,,,,,,,,
S,-0.5,1730147509467674880,,-0.00511287,0.00111983,-0.99847221,-0.00186534,0.00528933,0.00439404,-0.00000533,0.00000132,-0.00099824,-0.00000341,0.00000518,0.00000461,,,,,,,,,,,,,,,,,,,,,,,
S,-0.5,1730147509471620608,,,,,,,,,,,,,,0.99924529,-0.00207993,-0.00271792,0.03869440,-55.73180389,0.00614934,0.00080268,0.00069038,0.15880726,0.00123699,0.00054804,-0.00029285,-0.04054552,0.01685900,-9.81596947,0.01100357,-0.02585157,-0.03603172,0.05154909,-0.04271057,9.77993774,0.23252487,0.00000000
S,-0.5,1730147509468676608,,-0.00468460,0.00428313,-0.99989367,-0.00210167,0.00541185,0.00672962,-0.00000479,0.00000341,-0.00099934,-0.00000133,0.00000574,0.00000621,,,,,,,,,,,,,,,,,,,,,,,
S,-0.5,1730147509469677312,,-0.00552147,0.00491203,-0.99926239,-0.00031169,0.00367251,0.00738345,-0.00000523,0.00000580,-0.00099983,-0.00000071,0.00000403,0.00000801,,,,,,,,,,,,,,,,,,,,,,,
S,-0.5,1730147509473617664,,,,,,,,,,,,,,0.99924529,-0.00207993,-0.00271792,0.03869440,-55.73180389,0.00614934,0.00080268,0.00069038,0.15880726,-0.00167928,0.00273527,0.00145664,-0.05230055,0.01291052,-9.78934574,-0.00075146,-0.02980004,-0.00940800,0.05154909,-0.04271057,9.77993774,0.23252487,0.00000000
S,-0.5,1730147509470677504,,-0.00578119,0.00310390,-0.99907905,0.00122547,0.00201641,0.00388121,-0.00000600,0.00000363,-0.00099891,0.00000152,0.00000176,0.00000473,,,,,,,,,,,,,,,,,,,,,,,
S,-0.5,1730147509471676928,,-0.00550847,0.00372606,-0.99937999,-0.00135482,0.00000891,-0.00000548,-0.00000564,0.00000304,-0.00099927,-0.00000040,-0.00000015,-0.00000041,,,,,,,,,,,,,,,,,,,,,,,
S,-0.5,1730147509475613440,,,,,,,,,,,,,,0.99924529,-0.00207993,-0.00271792,0.03869440,-55.73180389,0.00614934,0.00080268,0.00069038,0.15880726,0.00102181,0.00158351,0.00484998,-0.05132053,0.05692387,-9.80497837,0.00022857,0.01421330,-0.02504063,0.05154909,-0.04271057,9.77993774,0.23252487,0.00000000
