state,extension,timestamp,invalid_fields,scaledAccelX,scaledAccelY,scaledAccelZ,scaledGyroX,scaledGyroY,scaledGyroZ,deltaVelX,deltaVelY,deltaVelZ,deltaThetaX,deltaThetaY,deltaThetaZ,estOrientQuaternionW,estOrientQuaternionX,estOrientQuaternionY,estOrientQuaternionZ,estPressureAlt,estAttitudeUncertQuaternionW,estAttitudeUncertQuaternionX,estAttitudeUncertQuaternionY,estAttitudeUncertQuaternionZ,estAngularRateX,estAngularRateY,estAngularRateZ,estCompensatedAccelX,estCompensatedAccelY,estCompensatedAccelZ,estLinearAccelX,estLinearAccelY,estLinearAccelZ,estGravityVectorX,estGravityVectorY,estGravityVectorZ,current_altitude,speed
S,-0.5,1730147596612447367,,,,,,,,,,,,,,0.01297110,-0.84393674,-0.53626829,0.00434371,-55.56269455,0.00066808,0.01733957,0.02721512,0.00106050,0.00338006,0.02073863,-0.00695085,-0.12523475,0.26016003,9.78098583,-0.06087798,0.00047353,0.00448132,0.06435677,-0.25968650,-9.77650452,0.00000000,0.00000000
S,-0.5,1730147596612924198,,-0.01504970,0.02612370,0.99952114,0.00698413,0.02241493,-0.01151945,-0.00001463,0.00002680,0.00100029,0.00000749,0.00001998,-0.00001225,,,,,,,,,,,,,,,,,,,,,,,
S,-0.5,1730147596613923328,,-0.01518538,0.02764934,0.99868947,0.00662402,0.02277068,-0.01150959,-0.00001577,0.00002669,0.00099856,0.00000722,0.00002383,-0.00001237,,,,,,,,,,,,,,,,,,,,,,,
S,-0.5,1730147596614446080,,,,,,,,,,,,,,0.01298583,-0.84393185,-0.53627574,0.00432993,-55.56269455,0.00066808,0.01733957,0.02721512,0.00106050,0.00677242,0.01809768,-0.01136928,-0.12911814,0.27748379,9.80944824,-0.06437692,0.01769921,0.03294849,0.06474122,-0.25978458,-9.77649975,0.00000000,0.00000000
S,-0.5,1730147596614921472,,-0.01304994,0.02565109,0.99805176,0.00807250,0.02949685,-0.01360615,-0.00001348,0.00002650,0.00099790,0.00000769,0.00002839,-0.00001322,,,,,,,,,,,,,,,,,,,,,,,
S,-0.5,1730147596615923968,,-0.01188521,0.02522077,0.99747646,0.01025681,0.02686790,-0.01379123,-0.00001142,0.00002466,0.00099738,0.00001032,0.00002949,-0.00001442,,,,,,,,,,,,,,,,,,,,,,,
S,-0.5,1730147596616448000,,,,,,,,,,,,,,0.01300313,-0.84392464,-0.53628677,0.00431728,-55.56269455,0.00066808,0.01733957,0.02721512,0.00106050,0.00894742,0.02145218,-0.01549889,-0.15463924,0.26177156,9.79257202,-0.08950438,0.00183505,0.01607895,0.06513486,-0.25993651,-9.77649307,0.00000000,0.00000000
S,-0.5,1730147596616925696,,-0.01282039,0.02245298,0.99560159,0.01245956,0.03063462,-0.01605140,-0.00001228,0.00002282,0.00099576,0.00001275,0.00002911,-0.00001570,,,,,,,,,,,,,,,,,,,,,,,
S,-0.5,1730147596617932032,,-0.01470512,0.02269766,0.99692422,0.01383313,0.02749139,-0.01466547,-0.00001466,0.00002177,0.00099609,0.00001428,0.00002926,-0.00001564,,,,,,,,,,,,,,,,,,,,,,,
S,-0.5,1730147596618454016,,,,,,,,,,,,,,0.01302509,-0.84391576,-0.53630036,0.00430221,-55.56269455,0.00066808,0.01733957,0.02721512,0.00106050,0.01205218,0.02710902,-0.01755368,-0.11196445,0.24186248,9.78093719,-0.04634623,-0.01827720,0.00445271,0.06561822,-0.26013967,-9.77648449,0.00000000,0.00000000
S,-0.5,1730147596618937856,,-0.01383587,0.02510427,0.99848503,0.01370087,0.02458480,-0.01347708,-0.00001459,0.00002474,0.00099862,0.00001416,0.00002411,-0.00001325,,,,,,,,,,,,,,,,,,,,,,,
S,-0.5,1730147596619942656,,-0.01393528,0.02425494,0.99798566,0.01522549,0.02552527,-0.01423421,-0.00001364,0.00002518,0.00099857,0.00001491,0.00002443,-0.00001372,,,,,,,,,,,,,,,,,,,,,,,
S,-0.5,1730147596620458496,,,,,,,,,,,,,,0.01305149,-0.84390593,-0.53631526,0.00428671,-55.56269455,0.00066808,0.01733957,0.02721512,0.00106050,0.01601590,0.02688392,-0.01876543,-0.14376915,0.21351352,9.76827717,-0.07761360,-0.04689816,-0.00819588,0.06615555,-0.26041168,-9.77647305,0.00000000,0.00000000
S,-0.5,1730147596620946688,,-0.01592446,0.02245831,0.99868113,0.01473683,0.02840398,-0.01101296,-0.00001559,0.00002251,0.00099840,0.00001531,0.00002818,-0.00001184,,,,,,,,,,,,,,,,,,,,,,,
S,-0.5,1730147596621950208,,-0.01408465,0.02459724,0.99936384,0.01877452,0.03002573,-0.01547369,-0.00001505,0.00002364,0.00099946,0.00001789,0.00003065,-0.00001364,,,,,,,,,,,,,,,,,,,,,,,
S,-0.5,1730147596622461696,,,,,,,,,,,,,,0.01307846,-0.84389627,-0.53632993,0.00427459,-55.56269455,0.00066808,0.01733957,0.02721512,0.00106050,0.01663755,0.02205166,-0.01684709,-0.13376813,0.24688597,9.79265785,-0.06712490,-0.01384257,0.01619625,0.06664323,-0.26072854,-9.77646160,0.00000000,0.00000000
S,-0.5,1730147596622952960,,-0.01348492,0.02696965,0.99923879,0.01404102,0.03383215,-0.01604382,-0.00001301,0.00002722,0.00099948,0.00001619,0.00003366,-0.00001736,,,,,,,,,,,,,,,,,,,,,,,
S,-0.5,1730147596623954688,,-0.01399061,0.02566057,0.99898565,0.01439573,0.03514232,-0.01333538,-0.00001371,0.00002665,0.00099899,0.00001282,0.00003612,-0.00001401,,,,,,,,,,,,,,,,,,,,,,,
S,-0.5,1730147596624463360,,,,,,,,,,,,,,0.01310733,-0.84388715,-0.53634369,0.00426286,-55.56269455,0.00066808,0.01733957,0.02721512,0.00106050,0.01961654,0.02826986,-0.01676659,-0.14761266,0.23179926,9.80136681,-0.08046869,-0.02928148,0.02491760,0.06714397,-0.26108074,-9.77644920,0.00000000,0.00000000
S,-0.5,1730147596624955648,,-0.01400877,0.02385840,0.99862766,0.01793496,0.03332242,-0.00870982,-0.00001417,0.00002377,0.00099861,0.00001740,0.00003407,-0.00000869,,,,,,,,,,,,,,,,,,,,,,,
S,-0.5,1730147596625955840,,-0.01486182,0.02300012,0.99894762,0.02103562,0.02990763,-0.01295669,-0.00001471,0.00002258,0.00099878,0.00002160,0.00002995,-0.00001071,,,,,,,,,,,,,,,,,,,,,,,
S,-0.5,1730147596626462976,,,,,,,,,,,,,,0.01313845,-0.84387797,-0.53635752,0.00424564,-55.56269455,0.00066808,0.01733957,0.02721512,0.00106050,0.01455575,0.03373835,-0.01713766,-0.13442992,0.26137969,9.79676342,-0.06667086,-0.00003284,0.02032757,0.06775905,-0.26141253,-9.77643585,0.00000000,0.00000000
S,-0.5,1730147596626955264,,-0.01465612,0.02601975,0.99953532,0.01947694,0.02677191,-0.01452678,-0.00001496,0.00002520,0.00099953,0.00002075,0.00002625,-0.00001559,,,,,,,,,,,,,,,,,,,,,,,
S,-0.5,1730147596627957760,,-0.01612414,0.02810814,0.99943596,0.02001066,0.02377805,-0.01498351,-0.00001579,0.00002869,0.00099964,0.00001942,0.00002332,-0.00001540,,,,,,,,,,,,,,,,,,,,,,,
S,-0.5,1730147596628465408,,,,,,,,,,,,,,0.01317094,-0.84386957,-0.53637010,0.00422972,-55.56269455,0.00066808,0.01733957,0.02721512,0.00106050,0.02333000,0.02757123,-0.01384146,-0.14427811,0.22146122,9.79464245,-0.07591157,-0.04031958,0.01822090,0.06836654,-0.26178080,-9.77642155,0.00000000,0.00000000
S,-0.5,1730147596628959488,,-0.01551865,0.02861412,0.99968278,0.02108725,0.02541809,-0.01449989,-0.00001610,0.00002919,0.00099961,0.00002106,0.00002417,-0.00001473,,,,,,,,,,,,,,,,,,,,,,,
S,-0.5,1730147596629960192,,-0.01529067,0.02815438,0.99874890,0.02362944,0.02532947,-0.01456335,-0.00001514,0.00002840,0.00099900,0.00002351,0.00002587,-0.00001440,,,,,,,,,,,,,,,,,,,,,,,
S,-0.5,1730147596630471424,,,,,,,,,,,,,,0.01320279,-0.84386069,-0.53638333,0.00422097,-55.85863495,0.00066808,0.01733957,0.02721512,0.00106050,0.02114871,0.02094633,-0.01852902,-0.15486360,0.28135058,9.80313110,-0.08601426,0.01913714,0.02672482,0.06884933,-0.26221344,-9.77640629,-0.29594040,0.00000000
S,-0.5,1730147596630965760,,-0.01383985,0.02791094,0.99999714,0.02192601,0.02598519,-0.01148212,-0.00001403,0.00002781,0.00099947,0.00002304,0.00002584,-0.00001206,,,,,,,,,,,,,,,,,,,,,,,
S,-0.5,1730147596631970560,,-0.01526003,0.02682236,0.99904746,0.02137089,0.02352181,-0.01102689,-0.00001454,0.00002694,0.00099962,0.00002093,0.00002418,-0.00001013,,,,,,,,,,,,,,,,,,,,,,,
S,-0.5,1730147596632475904,,,,,,,,,,,,,,0.01323435,-0.84385079,-0.53639817,0.00421442,-55.85863495,0.00066808,0.01733957,0.02721512,0.00106050,0.02524141,0.02349007,-0.01752660,-0.14846779,0.27850074,9.79681492,-0.07917456,0.01583627,0.02042389,0.06929324,-0.26266447,-9.77639103,-0.29594040,0.00000000
S,-0.5,1730147596632974848,,-0.01708911,0.02672268,1.00009596,0.02025376,0.02302602,-0.00774845,-0.00001721,0.00002639,0.00099960,0.00002028,0.00002233,-0.00000820,,,,,,,,,,,,,,,,,,,,,,,
S,-0.5,1730147596633978624,,-0.01667785,0.02767101,1.00127268,0.01772078,0.02278977,-0.00704032,-0.00001733,0.00002747,0.00100139,0.00001783,0.00002267,-0.00000613,,,,,,,,,,,,,,,,,,,,,,,
S,-0.5,1730147596634479360,,,,,,,,,,,,,,0.01326678,-0.84384233,-0.53641075,0.00420796,-55.85863495,0.00066808,0.01733957,0.02721512,0.00106050,0.02266070,0.02180057,-0.01325753,-0.14258911,0.26421553,9.80289745,-0.07284500,0.00108486,0.02652168,0.06974411,-0.26313066,-9.77637577,-0.29594040,0.00000000
S,-0.5,1730147596634981632,,-0.01545643,0.03069501,1.00075710,0.01569802,0.02219714,-0.01035150,-0.00001555,0.00003045,0.00100123,0.00001526,0.00002223,-0.00000952,,,,,,,,,,,,,,,,,,,,,,,
S,-0.5,1730147596635983616,,-0.01410767,0.02879510,1.00195634,0.01466999,0.02031177,-0.00870917,-0.00001396,0.00003010,0.00100157,0.00001421,0.00002047,-0.00001006,,,,,,,,,,,,,,,,,,,,,,,
S,-0.5,1730147596636481024,,,,,,,,,,,,,,0.01329593,-0.84383607,-0.53641987,0.00420137,-55.85863495,0.00066808,0.01733957,0.02721512,0.00106050,0.01955658,0.02029734,-0.00925414,-0.16999646,0.26935712,9.82030582,-0.09983485,0.00581533,0.04394436,0.07016160,-0.26354179,-9.77636147,-0.29594040,0.00000000
S,-0.5,1730147596636984576,,-0.01645227,0.02785965,1.00097704,0.01820819,0.01985162,-0.00636538,-0.00001560,0.00002743,0.00100154,0.00001724,0.00001934,-0.00000627,,,,,,,,,,,,,,,,,,,,,,,
S,-0.5,1730147596637984512,,-0.01573000,0.02856158,1.00138474,0.01896012,0.01775884,-0.00627490,-0.00001661,0.00002814,0.00100100,0.00001995,0.00001799,-0.00000555,,,,,,,,,,,,,,,,,,,,,,,
S,-0.5,1730147596638480640,,,,,,,,,,,,,,0.01332125,-0.84382993,-0.53642905,0.00419455,-55.85863495,0.00066808,0.01733957,0.02721512,0.00106050,0.01594407,0.01808815,-0.01319026,-0.13693799,0.29520735,9.82209015,-0.06639518,0.03132004,0.04574108,0.07054281,-0.26388732,-9.77634907,-0.29594040,0.00000000
S,-0.5,1730147596638983680,,-0.01502484,0.02779431,0.99970555,0.02193255,0.01342972,-0.00005965,-0.00001492,0.00002816,0.00100014,0.00002163,0.00001355,-0.00000116,,,,,,,,,,,,,,,,,,,,,,,
S,-0.5,1730147596639986176,,-0.01569536,0.02773920,1.00346982,0.02045663,0.00842895,-0.00205086,-0.00001535,0.00002750,0.00100225,0.00002167,0.00000796,0.00000029,,,,,,,,,,,,,,,,,,,,,,,
S,-0.5,1730147596640482816,,,,,,,,,,,,,,0.01334621,-0.84382391,-0.53643799,0.00419027,-55.85863495,0.00066808,0.01733957,0.02721512,0.00106050,0.02168091,0.01561506,-0.00867402,-0.16286322,0.27592489,9.81644726,-0.09198514,0.01167127,0.04011059,0.07087808,-0.26425362,-9.77633667,-0.29594040,0.00000000
S,-0.5,1730147596640987904,,-0.01632044,0.02681108,1.00443244,0.01361902,0.01053630,-0.00027195,-0.00001642,0.00002696,0.00100546,0.00001439,0.00000856,-0.00000123,,,,,,,,,,,,,,,,,,,,,,,
S,-0.5,1730147596641988608,,-0.01352840,0.02929701,1.00388777,0.01621857,0.00785501,-0.00408640,-0.00001423,0.00002855,0.00100429,0.00001357,0.00000901,-0.00000283,,,,,,,,,,,,,,,,,,,,,,,
S,-0.5,1730147596642483456,,,,,,,,,,,,,,0.01337094,-0.84382057,-0.53644264,0.00419334,-55.85863495,0.00066808,0.01733957,0.02721512,0.00106050,0.02340212,0.00558200,-0.00283943,-0.15051831,0.26973176,9.82872772,-0.07942996,0.00503823,0.05240440,0.07108835,-0.26469353,-9.77632332,-0.29594040,0.00000000
S,-0.5,1730147596642993920,,-0.01635902,0.02927579,1.00176167,0.01534132,0.00747363,-0.00499251,-0.00001496,0.00003007,0.00100197,0.00001633,0.00000669,-0.00000604,,,,,,,,,,,,,,,,,,,,,,,
S,-0.5,1730147596643998208,,-0.01713156,0.02660929,1.00004005,0.01708996,0.00662524,-0.00152003,-0.00001789,0.00002709,0.00099968,0.00001649,0.00000666,-0.00000244,,,,,,,,,,,,,,,,,,,,,,,
S,-0.5,1730147596644487680,,,,,,,,,,,,,,0.01339056,-0.84381789,-0.53644615,0.00419851,-55.85863495,0.00066808,0.01733957,0.02721512,0.00106050,0.01530095,0.00663543,-0.00595582,-0.13959467,0.27997831,9.84875107,-0.06838456,0.01490706,0.07243824,0.07121012,-0.26507124,-9.77631283,-0.29594040,0.00000000
S,-0.5,1730147596645001728,,-0.01727293,0.02613120,1.00074840,0.01626475,0.00461993,0.00431162,-0.00001749,0.00002537,0.00100007,0.00001697,0.00000471,0.00000436,,,,,,,,,,,,,,,,,,,,,,,
S,-0.5,1730147596646004736,,-0.01513013,0.02677899,0.99997771,0.01363564,0.00024989,0.00502475,-0.00001556,0.00002651,0.00100034,0.00001385,0.00000041,0.00000675,,,,,,,,,,,,,,,,,,,,,,,
S,-0.5,1730147596646490112,,,,,,,,,,,,,,0.01340766,-0.84381461,-0.53645086,0.00420282,-55.85863495,0.00066808,0.01733957,0.02721512,0.00106050,0.01822418,0.00428045,-0.00556809,-0.17546259,0.26563311,9.80347443,-0.10414271,0.00023496,0.02717209,0.07131988,-0.26539814,-9.77630234,-0.29594040,0.00000000
S,-0.5,1730147596647006976,,-0.01413282,0.02511880,1.00164282,0.01540683,0.00168939,0.00408380,-0.00001363,0.00002563,0.00100110,0.00001425,0.00000004,0.00000448,,,,,,,,,,,,,,,,,,,,,,,
S,-0.5,1730147596648008448,,-0.01547723,0.02521787,1.00078714,0.01403091,-0.00303439,0.00239893,-0.00001492,0.00002467,0.00100147,0.00001484,-0.00000172,0.00000241,,,,,,,,,,,,,,,,,,,,,,,
S,-0.5,1730147596648491264,,,,,,,,,,,,,,0.01342255,-0.84381390,-0.53645158,0.00421090,-55.85863495,0.00066808,0.01733957,0.02721512,0.00106050,0.01558183,-0.00197197,0.00362272,-0.15263161,0.25996310,9.81001568,-0.08128865,-0.00576544,0.03372192,0.07134296,-0.26572853,-9.77629375,-0.29594040,0.00000000
S,-0.5,1730147596649009152,,-0.01611448,0.02549702,1.00120795,0.01469905,-0.00149104,0.00778579,-0.00001643,0.00002548,0.00100086,0.00001414,-0.00000328,0.00000627,,,,,,,,,,,,,,,,,,,,,,,
S,-0.5,1730147596650009088,,-0.01692682,0.02641222,0.99973035,0.01204704,-0.00172514,0.00645985,-0.00001698,0.00002633,0.00100013,0.00001274,-0.00000119,0.00000842,,,,,,,,,,,,,,,,,,,,,,,
S,-0.5,1730147596650490880,,,,,,,,,,,,,,0.01343448,-0.84381443,-0.53645033,0.00422211,-55.85863495,0.00066808,0.01733957,0.02721512,0.00106050,0.01657586,-0.00409546,-0.00072318,-0.14626983,0.24194439,9.82109261,-0.07498696,-0.02409871,0.04480648,0.07128287,-0.26604310,-9.77628613,-0.29594040,0.00000000
S,-0.5,1730147596651012352,,-0.01506487,0.02767370,0.99851054,0.00998646,-0.00454190,0.00520314,-0.00001566,0.00002774,0.00099826,0.00000952,-0.00000410,0.00000501,,,,,,,,,,,,,,,,,,,,,,,
S,-0.5,1730147596652014848,,-0.01579665,0.02787222,1.00025344,0.00998280,-0.00350094,0.00504666,-0.00001507,0.00002824,0.00099955,0.00000933,-0.00000459,0.00000468,,,,,,,,,,,,,,,,,,,,,,,
S,-0.5,1730147596652492800,,,,,,,,,,,,,,0.01344551,-0.84381545,-0.53644836,0.00423370,-55.85863495,0.00066808,0.01733957,0.02721512,0.00106050,0.01447273,-0.00356888,0.00528673,-0.16653886,0.25825503,9.80795288,-0.09533214,-0.00809196,0.03167439,0.07120673,-0.26634699,-9.77627850,-0.29594040,0.00000000
S,-0.5,1730147596653016320,,-0.01493768,0.02948099,0.99990094,0.00795431,-0.00352803,0.00482617,-0.00001533,0.00002925,0.00100052,0.00000832,-0.00000319,0.00000482,,,,,,,,,,,,,,,,,,,,,,,
S,-0.5,1730147596654016768,,-0.01569414,0.03022211,0.99844998,0.00695392,-0.00400511,0.01224029,-0.00001528,0.00003060,0.00099860,0.00000649,-0.00000393,0.00001082,,,,,,,,,,,,,,,,,,,,,,,
S,-0.5,1730147596654492928,,,,,,,,,,,,,,0.01345345,-0.84381706,-0.53644550,0.00424504,-55.85863495,0.00066808,0.01733957,0.02721512,0.00106050,0.01105874,-0.00696422,0.00154635,-0.14779580,0.27691704,9.80222225,-0.07669386,0.01031998,0.02595043,0.07110193,-0.26659706,-9.77627182,-0.29594040,0.00000000
S,-0.5,1730147596655016704,,-0.01680919,0.02577217,1.00099707,0.00457964,-0.00363951,0.01333582,-0.00001685,0.00002682,0.00100007,0.00000469,-0.00000386,0.00001550,,,,,,,,,,,,,,,,,,,,,,,
S,-0.5,1730147596656020992,,-0.01553357,0.02669932,1.00210881,0.00396511,-0.00360064,0.01147721,-0.00001612,0.00002511,0.00100272,0.00000332,-0.00000349,0.00001216,,,,,,,,,,,,,,,,,,,,,,,
S,-0.5,1730147596656497408,,,,,,,,,,,,,,0.01345800,-0.84381938,-0.53644162,0.00425587,-55.85863495,0.00066808,0.01733957,0.02721512,0.00106050,0.00822116,-0.00630460,0.00769431,-0.14987701,0.30007756,9.79293442,-0.07890727,0.03329134,0.01666641,0.07096975,-0.26678622,-9.77626801,-0.29594040,0.00000000
S,-0.5,1730147596657024768,,-0.01717042,0.02686333,1.00336504,0.00377384,-0.00520169,0.00920067,-0.00001647,0.00002713,0.00100349,0.00000361,-0.00000490,0.00000902,,,,,,,,,,,,,,,,,,,,,,,
S,-0.5,1730147596658027776,,-0.01606818,0.02804754,1.00333989,0.00592770,-0.00739857,0.00732660,-0.00001679,0.00002788,0.00100374,0.00000548,-0.00000751,0.00000694,,,,,,,,,,,,,,,,,,,,,,,
S,-0.5,1730147596658500096,,,,,,,,,,,,,,0.01346030,-0.84382379,-0.53643465,0.00426468,-55.85863495,0.00066808,0.01733957,0.02721512,0.00106050,0.00505218,-0.00586887,0.00903490,-0.15808618,0.24628705,9.83330059,-0.08723991,-0.02063015,0.05703545,0.07084627,-0.26691720,-9.77626514,-0.29594040,0.00000000
S,-0.5,1730147596659030016,,-0.01445147,0.02830970,1.00078762,0.00726641,-0.00635249,0.00888485,-0.00001439,0.00002864,0.00100124,0.00000771,-0.00000724,0.00000801,,,,,,,,,,,,,,,,,,,,,,,
S,-0.5,1730147596660031232,,-0.01293850,0.02895583,1.00066411,0.00566318,-0.00594757,0.00982226,-0.00001270,0.00002892,0.00099987,0.00000638,-0.00000569,0.00001015,,,,,,,,,,,,,,,,,,,,,,,
S,-0.5,1730147596660500992,,,,,,,,,,,,,,0.01346122,-0.84382713,-0.53642929,0.00427470,-55.85863495,0.00066808,0.01733957,0.02721512,0.00106050,0.00720666,-0.00988658,0.00381373,-0.16464640,0.27345592,9.84337044,-0.09395758,0.00641796,0.06710720,0.07068882,-0.26703796,-9.77626324,-0.29594040,0.00000000
S,-0.5,1730147596661031936,,-0.01387692,0.02901786,1.00118268,0.00325360,-0.00767731,0.01018427,-0.00001322,0.00002921,0.00100105,0.00000318,-0.00000723,0.00001042,,,,,,,,,,,,,,,,,,,,,,,
S,-0.5,1730147596662031616,,-0.01411672,0.02801800,1.00095177,0.00504550,-0.00758932,0.00869174,-0.00001437,0.00002822,0.00100116,0.00000395,-0.00000816,0.00000908,,,,,,,,,,,,,,,,,,,,,,,
S,-0.5,1730147596662500096,,,,,,,,,,,,,,0.01346285,-0.84382987,-0.53642482,0.00428645,-55.85863495,0.00066808,0.01733957,0.02721512,0.00106050,0.00811177,-0.00806571,0.00701923,-0.12453367,0.28362569,9.80541611,-0.05402324,0.01643723,0.02915573,0.07051042,-0.26718846,-9.77626038,-0.29594040,0.00000000
S,-0.5,1730147596663030528,,-0.01485291,0.02642297,1.00123775,0.00416070,-0.00726706,0.00933859,-0.00001480,0.00002639,0.00100111,0.00000489,-0.00000730,0.00000875,,,,,,,,,,,,,,,,,,,,,,,
S,-0.5,1730147596664032768,,-0.01692939,0.02781754,1.00000370,0.00117764,-0.00769316,0.00519075,-0.00001679,0.00002706,0.00100032,0.00000144,-0.00000751,0.00000615,,,,,,,,,,,,,,,,,,,,,,,
S,-0.5,1730147596664502272,,,,,,,,,,,,,,0.01346365,-0.84383321,-0.53641945,0.00429809,-55.85863495,0.00066808,0.01733957,0.02721512,0.00106050,0.00568410,-0.01053344,0.00594943,-0.14093903,0.27673846,9.81801319,-0.07061390,0.00941420,0.04175568,0.07032513,-0.26732427,-9.77625751,-0.29594040,0.00000000
S,-0.5,1730147596665034496,,-0.01800612,0.02865008,0.99965340,-0.00053224,-0.00257549,0.00530875,-0.00001847,0.00002894,0.00099932,-0.00000117,-0.00000364,0.00000397,,,,,,,,,,,,,,,,,,,,,,,
S,-0.5,1730147596666035200,,-0.01592809,0.02918158,0.99666190,-0.00158131,-0.00527488,0.00778573,-0.00001665,0.00002935,0.00099709,-0.00000193,-0.00000316,0.00000737,,,,,,,,,,,,,,,,,,,,,,,
S,-0.5,1730147596666502656,,,,,,,,,,,,,,0.01346189,-0.84383553,-0.53641576,0.00430914,-55.85863495,0.00066808,0.01733957,0.02721512,0.00106050,0.00316917,-0.00989070,0.00302155,-0.16461870,0.26533017,9.80977821,-0.09449565,-0.00208127,0.03352165,0.07012305,-0.26741144,-9.77625656,-0.29594040,0.00000000
S,-0.5,1730147596667035392,,-0.01599418,0.02739592,0.99629784,-0.00024863,-0.00247490,0.00729091,-0.00001532,0.00002789,0.00099541,-0.00000082,-0.00000384,0.00000817,,,,,,,,,,,,,,,,,,,,,,,
S,-0.5,1730147596668034816,,-0.01396286,0.02583582,0.99818093,0.00025354,-0.00419557,0.00790306,-0.00001435,0.00002555,0.00099772,0.00000059,-0.00000299,0.00000763,,,,,,,,,,,,,,,,,,,,,,,
S,-0.5,1730147596668506624,,,,,,,,,,,,,,0.01345899,-0.84383744,-0.53641278,0.00431649,-55.85863495,0.00066808,0.01733957,0.02721512,0.00106050,-0.00020381,-0.00553297,0.00424452,-0.16326517,0.28782472,9.77815151,-0.09329485,0.02038378,0.00189400,0.06997032,-0.26744094,-9.77625751,-0.29594040,0.00000000
S,-0.5,1730147596669038592,,-0.01525885,0.02755220,0.99940038,0.00115719,-0.01070774,0.00657185,-0.00001438,0.00002674,0.00099978,0.00000115,-0.00001007,0.00000701,,,,,,,,,,,,,,,,,,,,,,,
S,-0.5,1730147596670041344,,-0.01630207,0.02747653,1.00105298,-0.00266337,-0.00407622,0.00617614,-0.00001653,0.00002804,0.00100114,-0.00000168,-0.00000735,0.00000582,,,,,,,,,,,,,,,,,,,,,,,
S,-0.5,1730147596670508800,,,,,,,,,,,,,,0.01345694,-0.84383976,-0.53640914,0.00432172,-55.85863495,0.00066808,0.01733957,0.02721512,0.00106050,0.00231768,-0.00536922,0.00450561,-0.14075521,0.25056967,9.78431988,-0.07089382,-0.01689255,0.00806236,0.06986138,-0.26746222,-9.77625751,-0.29594040,0.00000000
S,-0.5,1730147596671043072,,-0.01670128,0.02723252,1.00016761,-0.00203576,-0.00488221,0.00633114,-0.00001696,0.00002725,0.00100085,-0.00000337,-0.00000262,0.00000618,,,,,,,,,,,,,,,,,,,,,,,
S,-0.5,1730147596672044288,,-0.01709655,0.02615175,1.00134742,-0.00063093,-0.00392531,0.00549700,-0.00001715,0.00002627,0.00100085,-0.00000069,-0.00000436,0.00000570,,,,,,,,,,,,,,,,,,,,,,,
S,-0.5,1730147596672509952,,,,,,,,,,,,,,0.01345387,-0.84384167,-0.53640622,0.00432877,-55.16106415,0.00066808,0.01733957,0.02721512,0.00106050,0.00004959,-0.00973153,0.00269558,-0.16205765,0.27494299,9.81783867,-0.09234582,0.00745711,0.04158115,0.06971183,-0.26748589,-9.77625751,0.40163040,0.00000000
S,-0.5,1730147596673044736,,-0.01651707,0.02776964,1.00143397,0.00034475,-0.00323144,0.00150342,-0.00001675,0.00002713,0.00100179,0.00000061,-0.00000305,0.00000196,,,,,,,,,,,,,,,,,,,,,,,
S,-0.5,1730147596674044160,,-0.01630158,0.02827964,1.00061607,-0.00036448,0.00053538,0.00363345,-0.00001616,0.00002870,0.00100079,0.00000007,0.00000007,0.00000198,,,,,,,,,,,,,,,,,,,,,,,
S,-0.5,1730147596674509056,,,,,,,,,,,,,,0.01344990,-0.84384304,-0.53640413,0.00433605,-55.16106415,0.00066808,0.01733957,0.02721512,0.00106050,0.00104477,-0.00673327,0.00256917,-0.16820040,0.25762722,9.81499767,-0.09865093,-0.00986972,0.03873920,0.06954947,-0.26749694,-9.77625847,0.40163040,0.00000000
S,-0.5,1730147596675042816,,-0.01759526,0.02694796,1.00020468,-0.00101162,0.00015391,0.00331559,-0.00001729,0.00002735,0.00100002,-0.00000112,0.00000142,0.00000405,,,,,,,,,,,,,,,,,,,,,,,
S,-0.5,1730147596676045056,,-0.01727731,0.02793522,0.99856699,0.00011042,-0.00037076,0.00359483,-0.00001775,0.00002733,0.00099873,-0.00000030,-0.00000040,0.00000344,,,,,,,,,,,,,,,,,,,,,,,
S,-0.5,1730147596676511232,,,,,,,,,,,,,,0.01344868,-0.84384340,-0.53640360,0.00434064,-55.16106415,0.00066808,0.01733957,0.02721512,0.00106050,0.00180612,-0.00230569,-0.00115348,-0.15844148,0.28146970,9.81442070,-0.08898076,0.01394477,0.03816223,0.06946073,-0.26752493,-9.77625847,0.40163040,0.00000000
S,-0.5,1730147596677046784,,-0.01462206,0.02914525,1.00008404,0.00172238,-0.00062586,0.00239551,-0.00001500,0.00002924,0.00099929,0.00000179,-0.00000075,0.00000270,,,,,,,,,,,,,,,,,,,,,,,
S,-0.5,1730147596678047744,,-0.01290853,0.02617795,1.00009656,0.00396957,-0.00048637,0.00502617,-0.00001237,0.00002710,0.00100058,0.00000407,-0.00000059,0.00000417,,,,,,,,,,,,,,,,,,,,,,,
S,-0.5,1730147596678511872,,,,,,,,,,,,,,0.01344869,-0.84384316,-0.53640395,0.00434364,-55.16106415,0.00066808,0.01733957,0.02721512,0.00106050,0.00143174,-0.00277440,0.00031419,-0.17403589,0.26803559,9.79423046,-0.10462462,0.00047907,0.01797295,0.06941127,-0.26755652,-9.77625751,0.40163040,0.00000000
S,-0.5,1730147596679047680,,-0.01083272,0.02546120,0.99813575,0.00485546,0.00327586,0.00532817,-0.00001066,0.00002465,0.00099850,0.00000541,0.00000264,0.00000611,,,,,,,,,,,,,,,,,,,,,,,
S,-0.5,1730147596680046848,,-0.01152514,0.02677313,0.99935108,-0.00082826,0.00438153,0.00578205,-0.00001074,0.00002631,0.00099851,0.00000049,0.00000538,0.00000580,,,,,,,,,,,,,,,,,,,,,,,
S,-0.5,1730147596680511232,,,,,,,,,,,,,,0.01345020,-0.84384346,-0.53640342,0.00434802,-55.16106415,0.00066808,0.01733957,0.02721512,0.00106050,0.00580555,-0.00297045,0.00103773,-0.12135414,0.26578414,9.81231117,-0.05199939,-0.00184321,0.03605556,0.06935475,-0.26762736,-9.77625561,0.40163040,0.00000000
S,-0.5,1730147596681050368,,-0.01366168,0.02759141,0.99701786,-0.00039483,0.00344006,0.00749825,-0.00001349,0.00002786,0.00099783,-0.00000228,0.00000396,0.00000733,,,,,,,,,,,,,,,,,,,,,,,
S,-0.5,1730147596682052864,,-0.01361927,0.02585794,0.99819171,0.00138921,0.00178651,0.00293885,-0.00001431,0.00002643,0.00099724,0.00000120,0.00000179,0.00000431,,,,,,,,,,,,,,,,,,,,,,,
S,-0.5,1730147596682513664,,,,,,,,,,,,,,0.01345358,-0.84384441,-0.53640181,0.00435018,-55.16106415,0.00066808,0.01733957,0.02721512,0.00106050,0.00221757,0.00300065,0.00266699,-0.10531180,0.25797579,9.79200077,-0.03595775,-0.00973031,0.01574612,0.06935405,-0.26770610,-9.77625465,0.40163040,0.00000000
S,-0.5,1730147596683054592,,-0.01520379,0.02643952,0.99822265,0.00218308,0.00532516,0.00012056,-0.00001490,0.00002578,0.00099859,0.00000261,0.00000416,-0.00000082,,,,,,,,,,,,,,,,,,,,,,,
S,-0.5,1730147596684055808,,-0.01280251,0.02515583,0.99869317,0.00150805,0.00838018,0.00204777,-0.00001374,0.00002557,0.00099862,0.00000188,0.00000895,0.00000080,,,,,,,,,,,,,,,,,,,,,,,
S,-0.5,1730147596684514816,,,,,,,,,,,,,,0.01345639,-0.84384543,-0.53640014,0.00435057,-55.16106415,0.00066808,0.01733957,0.02721512,0.00106050,0.00293420,-0.00059027,0.00118481,-0.14030257,0.25922555,9.77954197,-0.07092599,-0.00853115,0.00328922,0.06937658,-0.26775670,-9.77625275,0.40163040,0.00000000
S,-0.5,1730147596685056256,,-0.01308286,0.02669121,1.00060320,0.00232814,0.01188738,0.00174427,-0.00001227,0.00002600,0.00100041,0.00000196,0.00001222,0.00000241,,,,,,,,,,,,,,,,,,,,,,,
S,-0.5,1730147596686055680,,-0.01295074,0.02712765,0.99913985,0.00424848,0.00984953,-0.00010106,-0.00001306,0.00002754,0.00100001,0.00000416,0.00001134,0.00000014,,,,,,,,,,,,,,,,,,,,,,,
S,-0.5,1730147596686513664,,,,,,,,,,,,,,0.01346076,-0.84384507,-0.53640056,0.00434980,-55.16106415,0.00066808,0.01733957,0.02721512,0.00106050,0.00361457,0.00657396,-0.00232819,-0.13477834,0.25079653,9.79309273,-0.06534296,-0.01702413,0.01684284,0.06943537,-0.26782066,-9.77624989,0.40163040,0.00000000
S,-0.5,1730147596687054336,,-0.01242971,0.02806338,0.99769360,0.00194505,0.00945246,-0.00227879,-0.00001248,0.00002803,0.00099749,0.00000297,0.00000888,-0.00000247,,,,,,,,,,,,,,,,,,,,,,,
S,-0.5,1730147596688056832,,-0.01480343,0.02411639,0.99861258,0.00057293,0.00956964,-0.00067777,-0.00001421,0.00002513,0.00099799,0.00000009,0.00000942,-0.00000166,,,,,,,,,,,,,,,,,,,,,,,
S,-0.5,1730147596688515584,,,,,,,,,,,,,,0.01346895,-0.84384352,-0.53640264,0.00434576,-55.16106415,0.00066808,0.01733957,0.02721512,0.00106050,0.00589178,0.00895862,-0.00299112,-0.12811325,0.27004826,9.80678558,-0.05852462,0.00213510,0.03053856,0.06958864,-0.26791316,-9.77624702,0.40163040,0.00000000
S,-0.5,1730147596689058560,,-0.01502537,0.02440156,0.99787104,0.00009888,0.00567878,0.00099025,-0.00001574,0.00002309,0.00099830,-0.00000025,0.00000642,0.00000120,,,,,,,,,,,,,,,,,,,,,,,
S,-0.5,1730147596690059264,,-0.01503275,0.02578002,0.99889040,0.00253270,0.00811052,-0.00495587,-0.00001510,0.00002562,0.00099847,0.00000194,0.00000643,-0.00000334,,,,,,,,,,,,,,,,,,,,,,,
S,-0.5,1730147596690516224,,,,,,,,,,,,,,0.01347651,-0.84384143,-0.53640580,0.00434102,-55.16106415,0.00066808,0.01733957,0.02721512,0.00106050,0.00182020,0.00704442,-0.00479058,-0.13931662,0.24645224,9.78689098,-0.06956945,-0.02153575,0.01064682,0.06974717,-0.26798800,-9.77624416,0.40163040,0.00000000
S,-0.5,1730147596691059712,,-0.01396956,0.02684149,0.99912775,0.00135310,0.00719474,-0.00670114,-0.00001417,0.00002709,0.00099941,0.00000234,0.00000814,-0.00000828,,,,,,,,,,,,,,,,,,,,,,,
S,-0.5,1730147596692059136,,-0.01457126,0.02970471,1.00154793,-0.00114724,0.01155893,-0.00173343,-0.00001412,0.00002952,0.00100118,-0.00000107,0.00001047,-0.00000319,,,,,,,,,,,,,,,,,,,,,,,
S,-0.5,1730147596692515328,,,,,,,,,,,,,,0.01348183,-0.84383839,-0.53641045,0.00433774,-55.16106415,0.00066808,0.01733957,0.02721512,0.00106050,0.00367077,0.00405265,-0.00647329,-0.14810063,0.25125143,9.79163742,-0.07824195,-0.01678947,0.01539612,0.06985868,-0.26804090,-9.77624130,0.40163040,0.00000000
S,-0.5,1730147596693057792,,-0.01537113,0.02724622,1.00157464,-0.00202674,0.01010610,-0.00282766,-0.00001542,0.00002860,0.00100234,-0.00000266,0.00001176,-0.00000105,,,,,,,,,,,,,,,,,,,,,,,
S,-0.5,1730147596694066688,,-0.01517023,0.02675872,1.00190735,-0.00465501,0.01023635,-0.00014823,-0.00001546,0.00002606,0.00100186,-0.00000446,0.00000975,-0.00000098,,,,,,,,,,,,,,,,,,,,,,,
S,-0.5,1730147596694523648,,,,,,,,,,,,,,0.01348695,-0.84383500,-0.53641582,0.00433369,-55.16106415,0.00066808,0.01733957,0.02721512,0.00106050,0.00066275,0.00809696,-0.00632027,-0.13850611,0.28951281,9.81825829,-0.06852521,0.02143040,0.04201889,0.06998090,-0.26808241,-9.77623940,0.40163040,0.00000000
S,-0.5,1730147596695074816,,-0.01649935,0.02819320,1.00176120,-0.00197475,0.01130161,-0.00066025,-0.00001619,0.00002778,0.00100189,-0.00000330,0.00001115,0.00000029,,,,,,,,,,,,,,,,,,,,,,,
S,-0.5,1730147596696081920,,-0.01652491,0.02702361,1.00083816,-0.00793851,0.01251507,-0.00345053,-0.00001694,0.00002769,0.00100096,-0.00000600,0.00001263,-0.00000311,,,,,,,,,,,,,,,,,,,,,,,
S,-0.5,1730147596696530432,,,,,,,,,,,,,,0.01349025,-0.84383225,-0.53642011,0.00432653,-55.16106415,0.00066808,0.01733957,0.02721512,0.00106050,-0.00272626,0.00737269,-0.00411208,-0.15162230,0.25560623,9.82484531,-0.08148737,-0.01245525,0.04860687,0.07013492,-0.26806149,-9.77623844,0.40163040,0.00000000
S,-0.5,1730147596697088000,,-0.01494682,0.02694369,1.00289142,-0.00734707,0.01314884,-0.00682526,-0.00001524,0.00002659,0.00100222,-0.00000935,0.00001342,-0.00000710,,,,,,,,,,,,,,,,,,,,,,,
S,-0.5,1730147596698093312,,-0.01516957,0.02828507,1.00022781,-0.00657288,0.01192444,-0.00137696,-0.00001463,0.00002802,0.00100137,-0.00000653,0.00001235,-0.00000344,,,,,,,,,,,,,,,,,,,,,,,
S,-0.5,1730147596698535168,,,,,,,,,,,,,,0.01349204,-0.84382957,-0.53642440,0.00431715,-55.16106415,0.00066808,0.01733957,0.02721512,0.00106050,-0.00427063,0.01025614,-0.00623526,-0.16615871,0.27157059,9.81605721,-0.09584866,0.00357825,0.03981781,0.07031005,-0.26799235,-9.77623940,0.40163040,0.00000000
S,-0.5,1730147596699097856,,-0.01498560,0.02780904,0.99870753,-0.00384701,0.01265886,-0.00162269,-0.00001509,0.00002832,0.00099814,-0.00000410,0.00001214,0.00000016,,,,,,,,,,,,,,,,,,,,,,,
S,-0.5,1730147596700101632,,-0.01625195,0.02638275,0.99940079,-0.00280077,0.01207644,-0.00114977,-0.00001596,0.00002649,0.00099879,-0.00000212,0.00001242,-0.00000131,,,,,,,,,,,,,,,,,,,,,,,
S,-0.5,1730147596700538880,,,,,,,,,,,,,,0.01349367,-0.84382623,-0.53642970,0.00430610,-55.16106415,0.00066808,0.01733957,0.02721512,0.00106050,-0.00479411,0.00997110,-0.00656980,-0.14343867,0.27474466,9.82003880,-0.07292743,0.00684184,0.04379845,0.07051124,-0.26790282,-9.77624035,0.40163040,0.00000000
S,-0.5,1730147596701104640,,-0.01688601,0.02746595,0.99925560,-0.00498188,0.01164042,-0.00153247,-0.00001717,0.00002681,0.00099950,-0.00000425,0.00001153,-0.00000131,,,,,,,,,,,,,,,,,,,,,,,
S,-0.5,1730147596702106624,,-0.01488910,0.02947847,0.99843204,-0.00531492,0.01167375,-0.00266021,-0.00001545,0.00002946,0.00099854,-0.00000595,0.00001153,-0.00000258,,,,,,,,,,,,,,,,,,,,,,,
S,-0.5,1730147596702540800,,,,,,,,,,,,,,0.01349687,-0.84382337,-0.53643423,0.00429619,-55.16106415,0.00066808,0.01733957,0.02721512,0.00106050,-0.00039202,0.01003849,-0.00444263,-0.15654683,0.25978330,9.79479218,-0.08583703,-0.00806805,0.01855183,0.07070980,-0.26785135,-9.77624035,0.40163040,0.00000000
S,-0.5,1730147596703107840,,-0.01371720,0.03145921,0.99931544,-0.00749203,0.00987978,0.00040615,-0.00001329,0.00003174,0.00099889,-0.00000720,0.00001022,-0.00000051,,,,,,,,,,,,,,,,,,,,,,,
S,-0.5,1730147596704108288,,-0.01387156,0.03090637,0.99870729,-0.00949931,0.01207247,-0.00075474,-0.00001347,0.00003164,0.00099910,-0.00000983,0.00001110,0.00000043,,,,,,,,,,,,,,,,,,,,,,,
S,-0.5,1730147596704540672,,,,,,,,,,,,,,0.01350010,-0.84382063,-0.53643835,0.00428679,-55.16106415,0.00066808,0.01733957,0.02721512,0.00106050,-0.00421751,0.00915137,-0.00570585,-0.15154952,0.28887904,9.79228783,-0.08064941,0.02107352,0.01604748,0.07090011,-0.26780552,-9.77624035,0.40163040,0.00000000
S,-0.5,1730147596705107712,,-0.01334401,0.02809814,1.00070250,-0.00706902,0.00913236,0.00065072,-0.00001349,0.00002843,0.00100015,-0.00000815,0.00001036,0.00000003,,,,,,,,,,,,,,,,,,,,,,,
S,-0.5,1730147596706109952,,-0.01427032,0.02748439,1.00101829,-0.00613472,0.00589995,0.00175985,-0.00001393,0.00002670,0.00100160,-0.00000553,0.00000555,0.00000201,,,,,,,,,,,,,,,,,,,,,,,
S,-0.5,1730147596706548480,,,,,,,,,,,,,,0.01349971,-0.84381849,-0.53644180,0.00427589,-55.16106415,0.00066808,0.01733957,0.02721512,0.00106050,-0.00809644,0.00872550,-0.00269648,-0.13210103,0.31025389,9.79781437,-0.06102391,0.04256937,0.02157211,0.07107712,-0.26768452,-9.77624226,0.40163040,0.00000000
S,-0.5,1730147596707117312,,-0.01558075,0.02733299,1.00125241,-0.00690327,0.00389358,0.00202869,-0.00001564,0.00002717,0.00100131,-0.00000647,0.00000323,0.00000233,,,,,,,,,,,,,,,,,,,,,,,
S,-0.5,1730147596708123648,,-0.01790142,0.02778239,0.99736154,-0.00539974,0.00407767,0.00156132,-0.00001790,0.00002765,0.00099814,-0.00000592,0.00000341,0.00000173,,,,,,,,,,,,,,,,,,,,,,,
S,-0.5,1730147596708554752,,,,,,,,,,,,,,0.01349790,-0.84381759,-0.53644335,0.00426765,-55.16106415,0.00066808,0.01733957,0.02721512,0.00106050,-0.00379971,0.00317384,-0.00112302,-0.13664283,0.26185948,9.82230091,-0.06544834,-0.00570852,0.04605675,0.07119448,-0.26756799,-9.77624416,0.40163040,0.00000000
S,-0.5,1730147596709129472,,-0.01703794,0.02723450,0.99810219,-0.00819860,0.00322868,0.00317806,-0.00001793,0.00002748,0.00099673,-0.00000721,0.00000344,0.00000274,,,,,,,,,,,,,,,,,,,,,,,
S,-0.5,1730147596710134784,,-0.01451365,0.02664914,0.99959022,-0.00927797,-0.00330310,0.00688374,-0.00001470,0.00002658,0.00099956,-0.00000997,-0.00000239,0.00000673,,,,,,,,,,,,,,,,,,,,,,,
S,-0.5,1730147596710559488,,,,,,,,,,,,,,0.01349566,-0.84381700,-0.53644443,0.00426372,-55.16106415,0.00066808,0.01733957,0.02721512,0.00106050,-0.00418638,0.00102803,-0.00139691,-0.17550880,0.27117932,9.78843784,-0.10427255,0.00368959,0.01219082,0.07123625,-0.26748973,-9.77624702,0.40163040,0.00000000
S,-0.5,1730147596711139328,,-0.01515775,0.02701201,1.00114167,-0.00874537,-0.00317652,0.00605040,-0.00001424,0.00002676,0.00100133,-0.00000919,-0.00000528,0.00000738,,,,,,,,,,,,,,,,,,,,,,,
S,-0.5,1730147596712142848,,-0.01718309,0.02620624,1.00148439,-0.00819855,-0.00139578,0.00793107,-0.00001702,0.00002647,0.00100192,-0.00000813,-0.00000168,0.00000732,,,,,,,,,,,,,,,,,,,,,,,
S,-0.5,1730147596712562944,,,,,,,,,,,,,,0.01348941,-0.84381765,-0.53644353,0.00426198,-55.25618744,0.00066808,0.01733957,0.02721512,0.00106050,-0.00824159,-0.00476412,0.00359636,-0.14412776,0.26066938,9.80229282,-0.07292862,-0.00669900,0.02604294,0.07119913,-0.26736838,-9.77624989,0.30650711,0.00000000
S,-0.5,1730147596713145344,,-0.01608615,0.02569113,1.00207114,-0.01441084,-0.00156737,0.00867326,-0.00001693,0.00002553,0.00100207,-0.00001311,-0.00000097,0.00000914,,,,,,,,,,,,,,,,,,,,,,,
S,-0.5,1730147596714146816,,-0.01789393,0.02838065,1.00111389,-0.01305104,-0.00141614,0.00773354,-0.00001722,0.00002773,0.00100147,-0.00001528,-0.00000150,0.00000814,,,,,,,,,,,,,,,,,,,,,,,
S,-0.5,1730147596714564608,,,,,,,,,,,,,,0.01348085,-0.84381986,-0.53644037,0.00426182,-55.25618744,0.00066808,0.01733957,0.02721512,0.00106050,-0.00639720,-0.00405658,0.00419538,-0.16691343,0.25956467,9.82543945,-0.09580261,-0.00766119,0.04918480,0.07111082,-0.26722586,-9.77625465,0.30650711,0.00000000
S,-0.5,1730147596715147520,,-0.01930597,0.02930456,0.99862117,-0.01335736,-0.00140833,0.00818371,-0.00001962,0.00002999,0.00099877,-0.00001287,-0.00000136,0.00000780,,,,,,,,,,,,,,,,,,,,,,,
S,-0.5,1730147596716147712,,-0.01677057,0.02949788,0.99854231,-0.01167013,-0.00347442,0.01079418,-0.00001768,0.00002976,0.00099776,-0.00001207,-0.00000310,0.00001046,,,,,,,,,,,,,,,,,,,,,,,
S,-0.5,1730147596716564480,,,,,,,,,,,,,,0.01347029,-0.84382242,-0.53643656,0.00425988,-55.25618744,0.00066808,0.01733957,0.02721512,0.00106050,-0.01354436,-0.00387578,0.00501180,-0.16883391,0.27191728,9.82111168,-0.09780311,0.00488573,0.04485130,0.07103080,-0.26703155,-9.77626038,0.30650711,0.00000000
S,-0.5,1730147596717147136,,-0.01841632,0.02873347,0.99991316,-0.01513502,-0.00865365,0.01115178,-0.00001731,0.00002893,0.00099964,-0.00001397,-0.00000837,0.00001192,,,,,,,,,,,,,,,,,,,,,,,
S,-0.5,1730147596718149376,,-0.01645661,0.02910011,1.00022078,-0.01786444,-0.00816758,0.01105767,-0.00001734,0.00002879,0.00100060,-0.00001847,-0.00000990,0.00001119,,,,,,,,,,,,,,,,,,,,,,,
S,-0.5,1730147596718566400,,,,,,,,,,,,,,0.01345768,-0.84382588,-0.53643149,0.00425750,-55.25618744,0.00066808,0.01733957,0.02721512,0.00106050,-0.01034302,-0.00547408,0.00733446,-0.17338681,0.29181573,9.78471470,-0.10245071,0.02501684,0.00844669,0.07093610,-0.26679888,-9.77626801,0.30650711,0.00000000
S,-0.5,1730147596719156480,,-0.01446637,0.02825324,1.00037122,-0.01620114,-0.01077681,0.00986297,-0.00001420,0.00002852,0.00100044,-0.00001737,-0.00001015,0.00001005,,,,,,,,,,,,,,,,,,,,,,,
S,-0.5,1730147596720162816,,-0.01290418,0.02767941,1.00277245,-0.01696019,-0.01103673,0.01013765,-0.00001255,0.00002751,0.00100238,-0.00001629,-0.00001182,0.00000971,,,,,,,,,,,,,,,,,,,,,,,
S,-0.5,1730147596720572160,,,,,,,,,,,,,,0.01344145,-0.84383017,-0.53642517,0.00425784,-55.25618744,0.00066808,0.01733957,0.02721512,0.00106050,-0.01674026,-0.01228204,0.00805988,-0.17001203,0.28233150,9.81254578,-0.09925362,0.01579630,0.03627014,0.07075841,-0.26653519,-9.77627563,0.30650711,0.00000000
S,-0.5,1730147596721168384,,-0.01565551,0.02766984,1.00236845,-0.01687468,-0.01020248,0.01106290,-0.00001466,0.00002749,0.00100321,-0.00001713,-0.00001044,0.00001098,,,,,,,,,,,,,,,,,,,,,,,
S,-0.5,1730147596722172928,,-0.01726669,0.02666833,0.99928313,-0.02191005,-0.01101208,0.01240815,-0.00001785,0.00002685,0.00099972,-0.00002097,-0.00001060,0.00001246,,,,,,,,,,,,,,,,,,,,,,,
S,-0.5,1730147596722576640,,,,,,,,,,,,,,0.01342111,-0.84383422,-0.53641921,0.00426071,-55.25618744,0.00066808,0.01733957,0.02721512,0.00106050,-0.01456166,-0.01419758,0.00657874,-0.12311623,0.26982206,9.83003044,-0.05262059,0.00359184,0.05374432,0.07049564,-0.26623023,-9.77628613,0.30650711,0.00000000
S,-0.5,1730147596723176960,,-0.01534733,0.02671738,0.99920845,-0.01958471,-0.01097692,0.01096660,-0.00001621,0.00002639,0.00099824,-0.00002161,-0.00001124,0.00001166,,,,,,,,,,,,,,,,,,,,,,,
S,-0.5,1730147596724179968,,-0.01486612,0.02570850,0.99870104,-0.01834460,-0.01184600,0.01586406,-0.00001434,0.00002591,0.00099877,-0.00001783,-0.00001168,0.00001452,,,,,,,,,,,,,,,,,,,,,,,
S,-0.5,1730147596724579584,,,,,,,,,,,,,,0.01339953,-0.84383869,-0.53641284,0.00426322,-55.25618744,0.00066808,0.01733957,0.02721512,0.00106050,-0.01923678,-0.01297697,0.00932952,-0.17504582,0.26327839,9.80385590,-0.10482007,-0.00262254,0.02755833,0.07022575,-0.26590094,-9.77629757,0.30650711,0.00000000
S,-0.5,1730147596725182208,,-0.01574430,0.02508329,0.99891478,-0.01581688,-0.01145407,0.01736018,-0.00001543,0.00002488,0.00099871,-0.00001588,-0.00001180,0.00001865,,,,,,,,,,,,,,,,,,,,,,,
S,-0.5,1730147596726183424,,-0.01544314,0.02580234,0.99844539,-0.01787742,-0.01213406,0.01631560,-0.00001578,0.00002547,0.00099860,-0.00001670,-0.00001189,0.00001698,,,,,,,,,,,,,,,,,,,,,,,
S,-0.5,1730147596726581248,,,,,,,,,,,,,,0.01337733,-0.84384441,-0.53640437,0.00426528,-55.25618744,0.00066808,0.01733957,0.02721512,0.00106050,-0.01609857,-0.01405443,0.01138666,-0.14065243,0.25406808,9.79458332,-0.07069645,-0.01148888,0.01827431,0.06995598,-0.26555696,-9.77630901,0.30650711,0.00000000
S,-0.5,1730147596727184128,,-0.01724067,0.02718735,0.99799001,-0.01541544,-0.01246941,0.01557534,-0.00001682,0.00002716,0.00099792,-0.00001652,-0.00001262,0.00001538,,,,,,,,,,,,,,,,,,,,,,,
S,-0.5,1730147596728184064,,-0.01751435,0.02889830,0.99946672,-0.01562699,-0.01504400,0.01365140,-0.00001804,0.00002903,0.00099905,-0.00001480,-0.00001468,0.00001377,,,,,,,,,,,,,,,,,,,,,,,
S,-0.5,1730147596728580864,,,,,,,,,,,,,,0.01335657,-0.84385121,-0.53639394,0.00426907,-55.25618744,0.00066808,0.01733957,0.02721512,0.00106050,-0.01496727,-0.01426331,0.01385290,-0.15472329,0.24980101,9.79290867,-0.08505086,-0.01545393,0.01659012,0.06967243,-0.26525494,-9.77631855,0.30650711,0.00000000
S,-0.5,1730147596729183232,,-0.01643890,0.02602985,1.00045884,-0.01604231,-0.01335906,0.01299502,-0.00001672,0.00002710,0.00100075,-0.00001603,-0.00001448,0.00001250,,,,,,,,,,,,,,,,,,,,,,,
S,-0.5,1730147596730185472,,-0.01778567,0.02604445,1.00084579,-0.01964125,-0.01480487,0.01363613,-0.00001720,0.00002513,0.00100109,-0.00001912,-0.00001401,0.00001331,,,,,,,,,,,,,,,,,,,,,,,
S,-0.5,1730147596730582784,,,,,,,,,,,,,,0.01333629,-0.84385794,-0.53638393,0.00427493,-55.25618744,0.00066808,0.01733957,0.02721512,0.00106050,-0.01307371,-0.01706051,0.01063661,-0.17687893,0.28467175,9.79736805,-0.10751921,0.01968923,0.02103996,0.06935972,-0.26498252,-9.77632809,0.30650711,0.00000000
S,-0.5,1730147596731186688,,-0.01895651,0.02790721,0.99933678,-0.02253557,-0.01398116,0.01772511,-0.00001917,0.00002757,0.00099973,-0.00002316,-0.00001459,0.00001719,,,,,,,,,,,,,,,,,,,,,,,
S,-0.5,1730147596732192768,,-0.01771443,0.02659674,0.99856925,-0.02040912,-0.01428106,0.01938886,-0.00001831,0.00002743,0.00099823,-0.00002172,-0.00001396,0.00002039,,,,,,,,,,,,,,,,,,,,,,,
S,-0.5,1730147596732588800,,,,,,,,,,,,,,0.01331442,-0.84386367,-0.53637540,0.00428101,-55.25618744,0.00066808,0.01733957,0.02721512,0.00106050,-0.01738839,-0.01638339,0.01018199,-0.16866146,0.24642622,9.81735229,-0.09963422,-0.01825994,0.04101372,0.06902725,-0.26468617,-9.77633858,0.30650711,0.00000000
S,-0.5,1730147596733198336,,-0.01458821,0.02638710,0.99736673,-0.01975116,-0.01573684,0.01750347,-0.00001476,0.00002601,0.00099734,-0.00001919,-0.00001557,0.00001838,,,,,,,,,,,,,,,,,,,,,,,
S,-0.5,1730147596734202880,,-0.01301323,0.02601184,0.99806982,-0.01844215,-0.01445548,0.01962739,-0.00001230,0.00002601,0.00099756,-0.00001847,-0.00001515,0.00001864,,,,,,,,,,,,,,,,,,,,,,,
S,-0.5,1730147596734593536,,,,,,,,,,,,,,0.01328982,-0.84387118,-0.53636414,0.00428498,-55.25618744,0.00066808,0.01733957,0.02721512,0.00106050,-0.01998560,-0.01634190,0.01725942,-0.17958756,0.26897585,9.78927517,-0.11088751,0.00465319,0.01292419,0.06870005,-0.26432267,-9.77635098,0.30650711,0.00000000
S,-0.5,1730147596735206656,,-0.01423507,0.02745791,0.99894840,-0.01685126,-0.01425060,0.01392773,-0.00001351,0.00002708,0.00099901,-0.00001672,-0.00001388,0.00001564,,,,,,,,,,,,,,,,,,,,,,,
S,-0.5,1730147596736209408,,-0.01338859,0.02805731,0.99972612,-0.01664059,-0.01460650,0.01464546,-0.00001393,0.00002841,0.00099986,-0.00001617,-0.00001448,0.00001270,,,,,,,,,,,,,,,,,,,,,,,
S,-0.5,1730147596736596224,,,,,,,,,,,,,,0.01326517,-0.84388012,-0.53635061,0.00428964,-55.25618744,0.00066808,0.01733957,0.02721512,0.00106050,-0.01673938,-0.01752922,0.01551263,-0.12066416,0.25510389,9.78271484,-0.05230391,-0.00886199,0.00635242,0.06836025,-0.26396587,-9.77636242,0.30650711,0.00000000
S,-0.5,1730147596737211392,,-0.01349595,0.02771761,1.00170743,-0.02016100,-0.01235845,0.01265853,-0.00001321,0.00002797,0.00100160,-0.00001945,-0.00001288,0.00001325,,,,,,,,,,,,,,,,,,,,,,,
S,-0.5,1730147596738212608,,-0.01213313,0.02682239,1.00123167,-0.02076352,-0.01099413,0.01351584,-0.00001242,0.00002688,0.00100195,-0.00002177,-0.00001053,0.00001273,,,,,,,,,,,,,,,,,,,,,,,
S,-0.5,1730147596738597376,,,,,,,,,,,,,,0.01324274,-0.84388697,-0.53634030,0.00429595,-55.25618744,0.00066808,0.01733957,0.02721512,0.00106050,-0.01444130,-0.01685417,0.00957208,-0.13661912,0.27859461,9.80532169,-0.06860162,0.01493186,0.02894878,0.06801750,-0.26366276,-9.77637291,0.30650711,0.00000000
S,-0.5,1730147596739213056,,-0.01283395,0.02727599,0.99876195,-0.01735622,-0.01156088,0.00886525,-0.00001227,0.00002691,0.00099906,-0.00001817,-0.00001102,0.00000998,,,,,,,,,,,,,,,,,,,,,,,
S,-0.5,1730147596740212992,,-0.01293619,0.02669821,0.99726951,-0.01336867,-0.01099351,0.00778714,-0.00001314,0.00002695,0.00099675,-0.00001301,-0.00001128,0.00000650,,,,,,,,,,,,,,,,,,,,,,,
S,-0.5,1730147596740596736,,,,,,,,,,,,,,0.01322017,-0.84389234,-0.53633255,0.00429938,-55.25618744,0.00066808,0.01733957,0.02721512,0.00106050,-0.02004346,-0.01290398,0.00959889,-0.12175064,0.26357058,9.82576084,-0.05402911,0.00024360,0.04937649,0.06772153,-0.26332697,-9.77638435,0.30650711,0.00000000
S,-0.5,1730147596741211904,,-0.01361647,0.02632218,0.99606943,-0.01140388,-0.00862125,0.00981849,-0.00001353,0.00002621,0.00099581,-0.00001049,-0.00000887,0.00000911,,,,,,,,,,,,,,,,,,,,,,,
S,-0.5,1730147596742214144,,-0.01204876,0.02636493,0.99603379,-0.00989122,-0.01055491,0.01027249,-0.00001255,0.00002624,0.00099566,-0.00000954,-0.00000945,0.00001084,,,,,,,,,,,,,,,,,,,,,,,
S,-0.5,1730147596742598400,,,,,,,,,,,,,,0.01319980,-0.84389597,-0.53632730,0.00430228,-55.25618744,0.00066808,0.01733957,0.02721512,0.00106050,-0.01127741,-0.01365454,0.00337398,-0.12886602,0.26426959,9.77482319,-0.06140755,0.00124797,-0.00157166,0.06745847,-0.26302162,-9.77639484,0.30650711,0.00000000
S,-0.5,1730147596743215872,,-0.01403668,0.02505847,0.99596649,-0.00731473,-0.00972852,0.00906280,-0.00001318,0.00002531,0.00099597,-0.00000730,-0.00001049,0.00000943,,,,,,,,,,,,,,,,,,,,,,,
S,-0.5,1730147596744216576,,-0.01289159,0.02531100,0.99397069,-0.00598529,-0.00687214,0.01406397,-0.00001373,0.00002485,0.00099431,-0.00000541,-0.00000713,0.00001277,,,,,,,,,,,,,,,,,,,,,,,
S,-0.5,1730147596744605440,,,,,,,,,,,,,,0.01318489,-0.84389901,-0.53632283,0.00430798,-55.25618744,0.00066808,0.01733957,0.02721512,0.00106050,-0.00780948,-0.01182600,0.00770788,-0.12307427,0.25730249,9.76407337,-0.05586783,-0.00553325,-0.01232815,0.06720644,-0.26283574,-9.77640152,0.30650711,0.00000000
S,-0.5,1730147596745222912,,-0.01287889,0.02729876,0.99683928,-0.00615407,-0.00486947,0.01430148,-0.00001252,0.00002702,0.00099568,-0.00000570,-0.00000432,0.00001585,,,,,,,,,,,,,,,,,,,,,,,
S,-0.5,1730147596746228480,,-0.01419211,0.02744208,0.99929291,-0.00620329,-0.00703490,0.01405704,-0.00001395,0.00002805,0.00099976,-0.00000625,-0.00000600,0.00001418,,,,,,,,,,,,,,,,,,,,,,,
S,-0.5,1730147596746610944,,,,,,,,,,,,,,0.01317429,-0.84390372,-0.53631568,0.00431402,-55.25618744,0.00066808,0.01733957,0.02721512,0.00106050,-0.00367555,-0.00950561,0.00964152,-0.13467166,0.24368957,9.75086880,-0.06767833,-0.01903507,-0.02553749,0.06699333,-0.26272464,-9.77640629,0.30650711,0.00000000
S,-0.5,1730147596747233024,,-0.01790152,0.02667823,1.00120473,-0.00487332,-0.00810590,0.01232817,-0.00001765,0.00002686,0.00100164,-0.00000513,-0.00000860,0.00001256,,,,,,,,,,,,,,,,,,,,,,,
S,-0.5,1730147596748236544,,-0.01636600,0.02632053,1.00033772,-0.00240935,-0.00749474,0.00888397,-0.00001783,0.00002614,0.00100110,-0.00000243,-0.00000795,0.00000896,,,,,,,,,,,,,,,,,,,,,,,
S,-0.5,1730147596748614400,,,,,,,,,,,,,,0.01316599,-0.84390926,-0.53630710,0.00431951,-55.25618744,0.00066808,0.01733957,0.02721512,0.00106050,-0.00451690,-0.00838153,0.01104834,-0.13679631,0.27506393,9.80429840,-0.06998329,0.01241800,0.02788925,0.06681302,-0.26264593,-9.77640915,0.30650711,0.00000000
S,-0.5,1730147596749239040,,-0.01595294,0.02437161,0.99961704,-0.00399274,-0.00416710,0.00796715,-0.00001554,0.00002461,0.00099947,-0.00000292,-0.00000458,0.00000704,,,,,,,,,,,,,,,,,,,,,,,
S,-0.5,1730147596750240768,,-0.01609801,0.02466267,0.99902058,-0.00365164,-0.00507074,0.00564408,-0.00001594,0.00002399,0.00099890,-0.00000422,-0.00000385,0.00000577,,,,,,,,,,,,,,,,,,,,,,,
S,-0.5,1730147596750616064,,,,,,,,,,,,,,0.01315873,-0.84391379,-0.53630012,0.00432611,-55.25618744,0.00066808,0.01733957,0.02721512,0.00106050,-0.00070251,-0.01032423,0.00583071,-0.17481132,0.25637132,9.81747532,-0.10818560,-0.00622472,0.04106331,0.06662572,-0.26259604,-9.77641201,0.30650711,0.00000000
S,-0.5,1730147596751241472,,-0.01500827,0.02464156,0.99872494,-0.00251212,-0.01227211,0.00422581,-0.00001525,0.00002474,0.00099859,-0.00000261,-0.00001125,0.00000374,,,,,,,,,,,,,,,,,,,,,,,
S,-0.5,1730147596752241408,,-0.01265293,0.02402477,0.99673259,0.00068003,-0.00562389,0.00345579,-0.00001273,0.00002413,0.00099700,0.00000046,-0.00000912,0.00000314,,,,,,,,,,,,,,,,,,,,,,,
S,-0.5,1730147596752615424,,,,,,,,,,,,,,0.01315293,-0.84391606,-0.53629667,0.00433229,-55.25618744,0.00066808,0.01733957,0.02721512,0.00106050,-0.00248645,-0.00622488,0.00264560,-0.15632030,0.23525485,9.79585838,-0.08985859,-0.02731058,0.01944447,0.06646171,-0.26256543,-9.77641392,0.30650711,0.00000000
S,-0.5,1730147596753240320,,-0.01213870,0.02675280,0.99893242,-0.00105544,-0.00030852,0.00463954,-0.00001148,0.00002606,0.00099790,0.00000028,0.00000084,0.00000418,,,,,,,,,,,,,,,,,,,,,,,
S,-0.5,1730147596754242560,,-0.01446641,0.02557231,0.99697530,-0.00047460,0.00235905,0.00379411,-0.00001388,0.00002666,0.00099803,-0.00000113,0.00000357,0.00000432,,,,,,,,,,,,,,,,,,,,,,,
S,-0.5,1730147596754617344,,,,,,,,,,,,,,0.01314805,-0.84391671,-0.53629565,0.00433971,-55.37244797,0.00066808,0.01733957,0.02721512,0.00106050,0.00219394,-0.01150161,0.00001553,-0.12487955,0.23663808,9.77723408,-0.05859184,-0.02592467,0.00081921,0.06628771,-0.26256275,-9.77641487,0.19024658,0.00000000
S,-0.5,1730147596755244032,,-0.01537016,0.02499072,0.99626338,0.00394990,0.00356553,0.00459978,-0.00001595,0.00002472,0.00099577,0.00000333,0.00000420,0.00000418,,,,,,,,,,,,,,,,,,,,,,,
S,-0.5,1730147596756244736,,-0.01284992,0.02417975,0.99710250,0.00090276,0.00459004,0.00370204,-0.00001360,0.00002414,0.00099672,0.00000286,0.00000479,0.00000412,,,,,,,,,,,,,,,,,,,,,,,
S,-0.5,1730147596756622848,,,,,,,,,,,,,,0.01314646,-0.84391701,-0.53629518,0.00434482,-55.37244797,0.00066808,0.01733957,0.02721512,0.00106050,0.00059862,0.00118877,0.00119579,-0.13611664,0.26139659,9.78734303,-0.06993008,-0.00119352,0.01092815,0.06618655,-0.26259011,-9.77641487,0.19024658,0.00000000
S,-0.5,1730147596757250048,,-0.01218326,0.02300644,0.99710220,0.00586723,0.00528492,0.00162850,-0.00001150,0.00002296,0.00099737,0.00000400,0.00000548,0.00000172,,,,,,,,,,,,,,,,,,,,,,,
S,-0.5,1730147596758254336,,-0.01348638,0.02067379,0.99755967,0.00697826,0.00969290,0.00075554,-0.00001304,0.00002072,0.00099748,0.00000836,0.00000911,0.00000025,,,,,,,,,,,,,,,,,,,,,,,
S,-0.5,1730147596758627072,,,,,,,,,,,,,,0.01314961,-0.84391755,-0.53629422,0.00434471,-55.37244797,0.00066808,0.01733957,0.02721512,0.00106050,0.00459592,0.00241039,0.00099288,-0.13332675,0.23675153,9.77451801,-0.06710558,-0.02588952,-0.00189590,0.06622117,-0.26264104,-9.77641392,0.19024658,0.00000000
S,-0.5,1730147596759257856,,-0.01362210,0.02253830,0.99624705,0.00748440,0.01012258,0.00073824,-0.00001401,0.00002146,0.00099663,0.00000775,0.00001145,0.00000046,,,,,,,,,,,,,,,,,,,,,,,
S,-0.5,1730147596760260352,,-0.01504354,0.02334760,0.99552703,0.01302996,0.01231219,0.00129658,-0.00001483,0.00002379,0.00099524,0.00001218,0.00001205,0.00000119,,,,,,,,,,,,,,,,,,,,,,,
S,-0.5,1730147596760630016,,,,,,,,,,,,,,0.01315826,-0.84391695,-0.53629494,0.00434478,-55.37244797,0.00066808,0.01733957,0.02721512,0.00106050,0.01008781,0.00673566,-0.00287460,-0.12785630,0.20323789,9.78190327,-0.06154520,-0.05954659,0.00549412,0.06631110,-0.26278448,-9.77640915,0.19024658,0.00000000
S,-0.5,1730147596761262336,,-0.01397265,0.02481080,0.99338281,0.01428878,0.01432513,-0.00133365,-0.00001462,0.00002480,0.00099354,0.00001583,0.00001466,-0.00000068,,,,,,,,,,,,,,,,,,,,,,,
S,-0.5,1730147596762263296,,-0.01438922,0.02531021,0.99596190,0.02081060,0.01657467,-0.00864246,-0.00001397,0.00002569,0.00099481,0.00002003,0.00001681,-0.00000815,,,,,,,,,,,,,,,,,,,,,,,
S,-0.5,1730147596762631168,,,,,,,,,,,,,,0.01317280,-0.84391552,-0.53629678,0.00434426,-55.37244797,0.00066808,0.01733957,0.02721512,0.00106050,0.01391466,0.00967359,-0.00193909,-0.14541821,0.23334351,9.75997066,-0.07894543,-0.02967530,-0.01643085,0.06647278,-0.26301882,-9.77640152,0.19024658,0.00000000
S,-0.5,1730147596763263488,,-0.01530996,0.02481433,0.99626893,0.02059597,0.02110178,-0.00942813,-0.00001528,0.00002506,0.00099703,0.00002271,0.00002100,-0.00001161,,,,,,,,,,,,,,,,,,,,,,,
S,-0.5,1730147596764262912,,-0.01503439,0.02388979,0.99777889,0.02310235,0.01966401,-0.00901622,-0.00001538,0.00002390,0.00099760,0.00002258,0.00002137,-0.00000934,,,,,,,,,,,,,,,,,,,,,,,
S,-0.5,1730147596764630272,,,,,,,,,,,,,,0.01319435,-0.84391177,-0.53630215,0.00434356,-55.37244797,0.00066808,0.01733957,0.02721512,0.00106050,0.02175750,0.01442916,-0.01128048,-0.13702685,0.25188929,9.75576210,-0.07031494,-0.01147738,-0.02062798,0.06671191,-0.26336667,-9.77639008,0.19024658,0.00000000
S,-0.5,1730147596765261568,,-0.01508378,0.02226304,0.99670887,0.02470479,0.02182149,-0.00827859,-0.00001499,0.00002226,0.00099738,0.00002521,0.00002097,-0.00000828,,,,,,,,,,,,,,,,,,,,,,,
S,-0.5,1730147596766265856,,-0.01259402,0.02246220,0.99669480,0.02223257,0.02008121,-0.01044008,-0.00001306,0.00002191,0.00099636,0.00002319,0.00002108,-0.00000981,,,,,,,,,,,,,,,,,,,,,,,
S,-0.5,1730147596766634240,,,,,,,,,,,,,,0.01322280,-0.84390515,-0.53631186,0.00434166,-55.37244797,0.00066808,0.01733957,0.02721512,0.00106050,0.02430982,0.01898872,-0.01246987,-0.15080245,0.23437819,9.78313732,-0.08375756,-0.02943724,0.00676155,0.06704488,-0.26381543,-9.77637577,0.19024658,0.00000000
S,-0.5,1730147596767269376,,-0.01239733,0.02240729,0.99724787,0.02505346,0.02093582,-0.01576707,-0.00001164,0.00002248,0.00099714,0.00002375,0.00002023,-0.00001549,,,,,,,,,,,,,,,,,,,,,,,
S,-0.5,1730147596768271872,,-0.01452626,0.02262735,0.99864048,0.02475618,0.02197644,-0.01457352,-0.00001408,0.00002257,0.00099856,0.00002571,0.00002206,-0.00001649,,,,,,,,,,,,,,,,,,,,,,,
S,-0.5,1730147596768636672,,,,,,,,,,,,,,0.01325374,-0.84389812,-0.53632224,0.00433879,-55.37244797,0.00066982,0.01730913,0.02723464,0.00105746,0.02492299,0.01870662,-0.01294128,-0.12809566,0.21484441,9.77092266,-0.06067553,-0.04945067,-0.00543785,0.06742013,-0.26429507,-9.77636051,0.19024658,0.00000000
S,-0.5,1730147596769273344,,-0.01176256,0.02256022,0.99781454,0.02759308,0.02282185,-0.01215703,-0.00001294,0.00002264,0.00099841,0.00002698,0.00002300,-0.00001222,,,,,,,,,,,,,,,,,,,,,,,
S,-0.5,1730147596770277376,,-0.01022575,0.02270344,0.99939144,0.03076069,0.02354484,-0.00657231,-0.00000963,0.00002266,0.00099884,0.00003109,0.00002368,-0.00000682,,,,,,,,,,,,,,,,,,,,,,,
S,-0.5,1730147596770640896,,,,,,,,,,,,,,0.01328619,-0.84388912,-0.53633559,0.00433642,-55.37244797,0.00066982,0.01730913,0.02723464,0.00105746,0.02743928,0.01968186,-0.01961473,-0.13804816,0.22133657,9.79256344,-0.07024413,-0.04346821,0.01621914,0.06780403,-0.26480478,-9.77634430,0.19024658,0.00000000
S,-0.5,1730147596771280640,,-0.01285985,0.02389954,0.99969685,0.03069456,0.02386966,-0.01026792,-0.00001189,0.00002373,0.00100014,0.00003171,0.00002404,-0.00000782,,,,,,,,,,,,,,,,,,,,,,,
S,-0.5,1730147596772282880,,-0.01379692,0.02536845,0.99972016,0.03052890,0.02817212,-0.01283189,-0.00001447,0.00002548,0.00099981,0.00003054,0.00002749,-0.00001354,,,,,,,,,,,,,,,,,,,,,,,
S,-0.5,1730147596772643072,,,,,,,,,,,,,,0.01332268,-0.84388089,-0.53634769,0.00433508,-55.37244797,0.00066982,0.01730913,0.02723464,0.00105746,0.03281936,0.02130503,-0.00994654,-0.09439196,0.22218336,9.79529476,-0.02617937,-0.04320849,0.01896954,0.06821258,-0.26539186,-9.77632523,0.19024658,0.00000000
S,-0.5,1730147596773286656,,-0.01759594,0.02509788,0.99938744,0.03037307,0.02896938,-0.01342496,-0.00001720,0.00002561,0.00099946,0.00003035,0.00003019,-0.00001413,,,,,,,,,,,,,,,,,,,,,,,
S,-0.5,1730147596774289408,,-0.01687319,0.02424031,0.99735188,0.03516236,0.03091067,-0.01268189,-0.00001821,0.00002431,0.00099762,0.00003424,0.00003081,-0.00001301,,,,,,,,,,,,,,,,,,,,,,,
S,-0.5,1730147596774645760,,,,,,,,,,,,,,0.01336265,-0.84387344,-0.53635848,0.00433277,-55.37244797,0.00066982,0.01730913,0.02723464,0.00105746,0.03226911,0.02511628,-0.01667110,-0.14185733,0.24989499,9.80481720,-0.07318385,-0.01613142,0.02851200,0.06867348,-0.26602641,-9.77630520,0.19024658,0.00000000
S,-0.5,1730147596775291648,,-0.01769396,0.02393852,0.99809945,0.03677188,0.03122054,-0.01492028,-0.00001731,0.00002372,0.00099732,0.00003800,0.00003178,-0.00001428,,,,,,,,,,,,,,,,,,,,,,,
S,-0.5,1730147596776292864,,-0.01689985,0.02448696,1.00010872,0.03273368,0.02669955,-0.01155809,-0.00001731,0.00002429,0.00099998,0.00003398,0.00002762,-0.00001288,,,,,,,,,,,,,,,,,,,,,,,
S,-0.5,1730147596776646400,,,,,,,,,,,,,,0.01340587,-0.84386432,-0.53637183,0.00432826,-55.37244797,0.00066982,0.01730913,0.02723464,0.00105746,0.03597376,0.02843418,-0.01613441,-0.17861663,0.23840286,9.78326893,-0.10941088,-0.02828844,0.00698566,0.06920575,-0.26669130,-9.77628326,0.19024658,0.00000000
S,-0.5,1730147596777293056,,-0.01773870,0.02881733,1.00162685,0.02979756,0.02403897,-0.01367319,-0.00001733,0.00002820,0.00100199,0.00002905,0.00002308,-0.00001222,,,,,,,,,,,,,,,,,,,,,,,
S,-0.5,1730147596778295296,,-0.01641106,0.02960014,0.99941546,0.03044241,0.02972293,-0.01203260,-0.00001692,0.00003084,0.00100030,0.00002939,0.00002784,-0.00001300,,,,,,,,,,,,,,,,,,,,,,,
S,-0.5,1730147596778648320,,,,,,,,,,,,,,0.01345058,-0.84385532,-0.53638488,0.00432462,-55.37244797,0.00066982,0.01730913,0.02723464,0.00105746,0.03571088,0.02524207,-0.01601019,-0.16970444,0.23821250,9.80646992,-0.09996535,-0.02917740,0.03020954,0.06973909,-0.26738989,-9.77626038,0.19024658,0.00000000
S,-0.5,1730147596779296768,,-0.01418135,0.02988983,1.00096416,0.03172577,0.03035884,-0.01042350,-0.00001416,0.00003009,0.00099998,0.00003170,0.00003205,-0.00001019,,,,,,,,,,,,,,,,,,,,,,,
S,-0.5,1730147596780297216,,-0.01490250,0.02646124,1.00266588,0.03473038,0.02776659,-0.01184974,-0.00001406,0.00002718,0.00100285,0.00003459,0.00002844,-0.00001108,,,,,,,,,,,,,,,,,,,,,,,
S,-0.5,1730147596780651520,,,,,,,,,,,,,,0.01349245,-0.84384638,-0.53639793,0.00432094,-55.37244797,0.00066982,0.01730913,0.02723464,0.00105746,0.03112183,0.02546578,-0.01613265,-0.16592547,0.30240121,9.80959797,-0.09568205,0.03436020,0.03335953,0.07024342,-0.26804101,-9.77623844,0.19024658,0.00000000
S,-0.5,1730147596781299712,,-0.01464155,0.02589466,1.00234985,0.03256952,0.02356158,-0.01232808,-0.00001492,0.00002491,0.00100295,0.00003392,0.00002350,-0.00001270,,,,,,,,,,,,,,,,,,,,,,,
S,-0.5,1730147596782301184,,-0.01606561,0.02617420,1.00147080,0.02929051,0.02571125,-0.01290320,-0.00001572,0.00002594,0.00100153,0.00002920,0.00002398,-0.00001295,,,,,,,,,,,,,,,,,,,,,,,
S,-0.5,1730147596782655232,,,,,,,,,,,,,,0.01353479,-0.84383792,-0.53641021,0.00431708,-55.37244797,0.00066982,0.01730913,0.02723464,0.00105746,0.03632414,0.02606245,-0.01420715,-0.13789557,0.26651168,9.83459568,-0.06714027,-0.00218657,0.05837822,0.07075530,-0.26869825,-9.77621746,0.19024658,0.00000000
S,-0.5,1730147596783304448,,-0.01623026,0.02614092,1.00097346,0.02822273,0.02725805,-0.01190184,-0.00001665,0.00002624,0.00100078,0.00002737,0.00002766,-0.00001227,,,,,,,,,,,,,,,,,,,,,,,
S,-0.5,1730147596784306688,,-0.01602707,0.02664324,1.00105536,0.02618798,0.02491726,-0.01151889,-0.00001612,0.00002654,0.00100088,0.00002622,0.00002583,-0.00001127,,,,,,,,,,,,,,,,,,,,,,,
S,-0.5,1730147596784657664,,,,,,,,,,,,,,0.01357602,-0.84382945,-0.53642255,0.00431480,-55.37244797,0.00066982,0.01730913,0.02723464,0.00105746,0.03092963,0.02160464,-0.01607967,-0.15419835,0.25441071,9.82165337,-0.08296889,-0.01494288,0.04545784,0.07122946,-0.26935360,-9.77619553,0.19024658,0.00000000
S,-0.5,1730147596785308160,,-0.01491940,0.02831831,1.00055826,0.02841089,0.02369737,-0.01153980,-0.00001506,0.00002817,0.00100067,0.00002736,0.00002317,-0.00001141,,,,,,,,,,,,,,,,,,,,,,,
S,-0.5,1730147596786308608,,-0.01343784,0.02959675,0.99908000,0.02689238,0.02470236,-0.01080401,-0.00001335,0.00002990,0.00099919,0.00002788,0.00002413,-0.00001094,,,,,,,,,,,,,,,,,,,,,,,
S,-0.5,1730147596786658304,,,,,,,,,,,,,,0.01361301,-0.84382087,-0.53643489,0.00431137,-55.37244797,0.00066982,0.01730913,0.02723464,0.00105746,0.02794896,0.02345738,-0.01439845,-0.15804631,0.26028112,9.81530094,-0.08636812,-0.00964585,0.03912449,0.07167818,-0.26992697,-9.77617645,0.19024658,0.00000000
S,-0.5,1730147596787308544,,-0.01290620,0.02949375,1.00220680,0.02553718,0.01938584,-0.00890541,-0.00001253,0.00002992,0.00100117,0.00002530,0.00002067,-0.00000902,,,,,,,,,,,,,,,,,,,,,,,
S,-0.5,1730147596788307712,,-0.01538214,0.02905977,1.00307536,0.02777065,0.01940489,-0.01101888,-0.00001476,0.00002911,0.00100391,0.00002693,0.00001771,-0.00001003,,,,,,,,,,,,,,,,,,,,,,,
S,-0.5,1730147596788656896,,,,,,,,,,,,,,0.01364948,-0.84381300,-0.53644651,0.00430754,-55.37244797,0.00066982,0.01730913,0.02723464,0.00105746,0.02960703,0.02175392,-0.01407307,-0.13096310,0.29319635,9.79870987,-0.05883521,0.02270871,0.02255249,0.07212789,-0.27048764,-9.77615738,0.19024658,0.00000000
S,-0.5,1730147596789306112,,-0.01751309,0.02904871,1.00370252,0.02473770,0.01748192,-0.00890387,-0.00001791,0.00002891,0.00100387,0.00002600,0.00001784,-0.00000996,,,,,,,,,,,,,,,,,,,,,,,
S,-0.5,1730147596790308096,,-0.01574172,0.02976375,1.00189388,0.02557747,0.02406613,-0.00822488,-0.00001674,0.00002963,0.00100242,0.00002446,0.00002226,-0.00000767,,,,,,,,,,,,,,,,,,,,,,,
S,-0.5,1730147596790658816,,,,,,,,,,,,,,0.01368408,-0.84380537,-0.53645760,0.00430734,-55.37244797,0.00066982,0.01730913,0.02723464,0.00105746,0.02866464,0.01533158,-0.01315927,-0.14477378,0.28543201,9.84502316,-0.07227597,0.01437667,0.06888390,0.07249781,-0.27105534,-9.77613926,0.19024658,0.00000000
S,-0.5,1730147596791309312,,-0.01422263,0.02985521,1.00115502,0.02388877,0.01996581,-0.01091456,-0.00001393,0.00003007,0.00100071,0.00002446,0.00002281,-0.00001021,,,,,,,,,,,,,,,,,,,,,,,
S,-0.5,1730147596792309760,,-0.01557331,0.02872154,1.00075769,0.02294977,0.00883819,-0.00693584,-0.00001484,0.00002896,0.00100059,0.00002258,0.00000955,-0.00000851,,,,,,,,,,,,,,,,,,,,,,,
S,-0.5,1730147596792659456,,,,,,,,,,,,,,0.01371672,-0.84379864,-0.53646737,0.00430703,-55.37244797,0.00066982,0.01730913,0.02723464,0.00105746,0.02619066,0.01988020,-0.01080373,-0.16418520,0.29057291,9.83040333,-0.09133665,0.01898304,0.05428219,0.07284855,-0.27158988,-9.77612114,0.19024658,0.00000000
S,-0.5,1730147596793309440,,-0.01369146,0.02913031,1.00258350,0.02042316,0.01482949,-0.00176145,-0.00001446,0.00002870,0.00100213,0.00002058,0.00001020,-0.00000144,,,,,,,,,,,,,,,,,,,,,,,
S,-0.5,1730147596794308096,,-0.01460351,0.02827486,1.00177944,0.02066003,0.01634077,-0.00538030,-0.00001384,0.00002856,0.00100251,0.00001981,0.00001797,-0.00000308,,,,,,,,,,,,,,,,,,,,,,,
S,-0.5,1730147596794663168,,,,,,,,,,,,,,0.01374533,-0.84379232,-0.53647655,0.00430901,-55.44643402,0.00066982,0.01730913,0.02723464,0.00105746,0.02431401,0.00717726,-0.01164363,-0.14556259,0.28396609,9.81248283,-0.07244342,0.01188412,0.03637695,0.07311917,-0.27208197,-9.77610588,0.11626053,0.00000000
S,-0.5,1730147596795311104,,-0.01749977,0.02786814,1.00094402,0.02075082,0.01244147,-0.00354289,-0.00001726,0.00002767,0.00100084,0.00002081,0.00001363,-0.00000503,,,,,,,,,,,,,,,,,,,,,,,
S,-0.5,1730147596796313344,,-0.01900178,0.02799464,1.00195134,0.02342143,0.01213974,-0.00690597,-0.00001965,0.00002784,0.00100150,0.00002297,0.00001095,-0.00000571,,,,,,,,,,,,,,,,,,,,,,,
S,-0.5,1730147596796665344,,,,,,,,,,,,,,0.01377082,-0.84378725,-0.53648382,0.00431158,-55.44643402,0.00066982,0.01730913,0.02723464,0.00105746,0.02154392,0.01559574,-0.00620444,-0.13571855,0.28008124,9.83123302,-0.06237189,0.00755227,0.05514145,0.07334666,-0.27252898,-9.77609158,0.11626053,0.00000000
S,-0.5,1730147596797315328,,-0.01743441,0.02831544,1.00111926,0.02060001,0.01391515,-0.00705673,-0.00001820,0.00002830,0.00100159,0.00002196,0.00001350,-0.00000810,,,,,,,,,,,,,,,,,,,,,,,
S,-0.5,1730147596798316800,,-0.01684326,0.02921891,1.00177634,0.01343110,0.01107525,-0.00499514,-0.00001645,0.00002916,0.00100139,0.00001384,0.00001216,-0.00000542,,,,,,,,,,,,,,,,,,,,,,,
S,-0.5,1730147596798666240,,,,,,,,,,,,,,0.01379685,-0.84378296,-0.53648990,0.00431368,-55.44643402,0.00066982,0.01730913,0.02723464,0.00105746,0.02469627,0.00857584,-0.00883879,-0.19270621,0.27304041,9.82138252,-0.11911914,0.00006050,0.04530525,0.07358707,-0.27297992,-9.77607727,0.11626053,0.00000000
S,-0.5,1730147596799317248,,-0.01626213,0.02871769,1.00222349,0.01408330,0.01227846,-0.00240004,-0.00001618,0.00002910,0.00100235,0.00001168,0.00001116,-0.00000222,,,,,,,,,,,,,,,,,,,,,,,
S,-0.5,1730147596800316672,,-0.01806285,0.02869068,1.00414813,0.01688613,0.00902485,-0.00491355,-0.00001755,0.00002854,0.00100394,0.00001658,0.00001000,-0.00000363,,,,,,,,,,,,,,,,,,,,,,,
S,-0.5,1730147596800665344,,,,,,,,,,,,,,0.01381880,-0.84377807,-0.53649700,0.00431662,-55.44643402,0.00066982,0.01730913,0.02723464,0.00105746,0.01556670,0.00977882,-0.00854641,-0.16133548,0.28592461,9.82030201,-0.08756424,0.01255235,0.04423714,0.07377125,-0.27337226,-9.77606487,0.11626053,0.00000000
S,-0.5,1730147596801315328,,-0.01753382,0.02694084,1.00264561,0.01651566,0.00717341,-0.00597235,-0.00001820,0.00002725,0.00100353,0.00001748,0.00000647,-0.00000658,,,,,,,,,,,,,,,,,,,,,,,
S,-0.5,1730147596802317312,,-0.01597662,0.03040687,1.00189400,0.01564342,0.00714231,-0.00368951,-0.00001609,0.00002922,0.00100155,0.00001568,0.00000656,-0.00000444,,,,,,,,,,,,,,,,,,,,,,,
S,-0.5,1730147596802667520,,,,,,,,,,,,,,0.01383779,-0.84377378,-0.53650326,0.00431826,-55.44643402,0.00066982,0.01730913,0.02723464,0.00105746,0.01831565,0.00762145,-0.00675955,-0.17211260,0.27984700,9.84529686,-0.09816707,0.00614464,0.06924248,0.07394553,-0.27370235,-9.77605438,0.11626053,0.00000000
S,-0.5,1730147596803318784,,-0.01588248,0.02874292,1.00149035,0.01637673,0.00854158,-0.00059742,-0.00001540,0.00003015,0.00100132,0.00001597,0.00000828,-0.00000043,,,,,,,,,,,,,,,,,,,,,,,
S,-0.5,1730147596804319488,,-0.01526489,0.02896327,0.99970472,0.01383928,0.00861907,-0.00020630,-0.00001535,0.00002839,0.00099990,0.00001453,0.00000905,0.00000071,,,,,,,,,,,,,,,,,,,,,,,
S,-0.5,1730147596804667904,,,,,,,,,,,,,,0.01385606,-0.84376973,-0.53650916,0.00432277,-55.44643402,0.00066982,0.01730913,0.02723464,0.00105746,0.01741515,0.00418109,-0.00757002,-0.15780032,0.28655025,9.82187366,-0.08373547,0.01249963,0.04582977,0.07406485,-0.27405062,-9.77604389,0.11626053,0.00000000
S,-0.5,1730147596805319424,,-0.01514117,0.02862497,1.00103652,0.00969050,0.00779429,-0.00037527,-0.00001497,0.00002876,0.00100023,0.00000964,0.00000797,-0.00000022,,,,,,,,,,,,,,,,,,,,,,,
S,-0.5,1730147596806318336,,-0.01554104,0.02949115,1.00151515,0.01050045,0.00784553,0.00012465,-0.00001543,0.00002923,0.00100185,0.00000903,0.00000757,-0.00000002,,,,,,,,,,,,,,,,,,,,,,,
S,-0.5,1730147596806666496,,,,,,,,,,,,,,0.01387320,-0.84376687,-0.53651321,0.00432716,-55.44643402,0.00066982,0.01730913,0.02723464,0.00105746,0.01626490,0.00667285,-0.00242184,-0.15050459,0.27844474,9.80567551,-0.07633090,0.00406560,0.02964115,0.07417369,-0.27437913,-9.77603436,0.11626053,0.00000000
S,-0.5,1730147596807316480,,-0.01706850,0.02976664,1.00114059,0.00869839,0.00836651,-0.00252796,-0.00001692,0.00002999,0.00100136,0.00000928,0.00000829,-0.00000189,,,,,,,,,,,,,,,,,,,,,,,
S,-0.5,1730147596808324608,,-0.01599954,0.03033561,0.99982744,0.00937124,0.00454244,-0.00292469,-0.00001668,0.00003032,0.00099995,0.00000868,0.00000540,-0.00000370,,,,,,,,,,,,,,,,,,,,,,,
S,-0.5,1730147596808675072,,,,,,,,,,,,,,0.01388780,-0.84376520,-0.53651541,0.00432936,-55.44643402,0.00066982,0.01730913,0.02723464,0.00105746,0.01076386,0.00519615,-0.00314868,-0.15130657,0.28660956,9.82481384,-0.07701531,0.01196659,0.04878902,0.07429126,-0.27464297,-9.77602482,0.11626053,0.00000000
S,-0.5,1730147596809332480,,-0.01530029,0.02967769,0.99990934,0.00796988,0.00383056,-0.00184976,-0.00001509,0.00002998,0.00099948,0.00000844,0.00000274,-0.00000217,,,,,,,,,,,,,,,,,,,,,,,
S,-0.5,1730147596810339584,,-0.01532023,0.03002828,1.00039840,0.00736239,0.00260241,0.00084902,-0.00001509,0.00002976,0.00100034,0.00000703,0.00000260,0.00000070,,,,,,,,,,,,,,,,,,,,,,,
S,-0.5,1730147596810681856,,,,,,,,,,,,,,0.01389896,-0.84376240,-0.53651953,0.00433150,-55.44643402,0.00066982,0.01730913,0.02723464,0.00105746,0.01040655,0.00302553,-0.00682569,-0.16357221,0.29733637,9.80612850,-0.08919784,0.02248722,0.03010941,0.07437437,-0.27484915,-9.77601910,0.11626053,0.00000000
S,-0.5,1730147596811345920,,-0.01646041,0.02981423,0.99949795,0.00601844,0.00325168,0.00361731,-0.00001626,0.00002996,0.00099982,0.00000607,0.00000274,0.00000397,,,,,,,,,,,,,,,,,,,,,,,
S,-0.5,1730147596812351232,,-0.01653106,0.02885489,0.99911362,0.00614722,0.00248279,0.00183603,-0.00001688,0.00002896,0.00099890,0.00000570,0.00000283,0.00000304,,,,,,,,,,,,,,,,,,,,,,,
S,-0.5,1730147596812686848,,,,,,,,,,,,,,0.01390794,-0.84375978,-0.53652334,0.00433521,-55.44643402,0.00066982,0.01730913,0.02723464,0.00105746,0.00875787,0.00022141,-0.00242788,-0.14802170,0.29179731,9.80994225,-0.07361305,0.01676148,0.03392887,0.07440865,-0.27503583,-9.77601337,0.11626053,0.00000000
S,-0.5,1730147596813356032,,-0.01622574,0.02826806,0.99815822,0.00273803,0.00149520,0.00269610,-0.00001630,0.00002807,0.00099821,0.00000340,0.00000143,0.00000197,,,,,,,,,,,,,,,,,,,,,,,
S,-0.5,1730147596814359808,,-0.01563122,0.02848041,0.99906027,0.00192947,0.00041952,0.00204873,-0.00001564,0.00002825,0.00099859,0.00000099,0.00000030,0.00000244,,,,,,,,,,,,,,,,,,,,,,,
S,-0.5,1730147596814690304,,,,,,,,,,,,,,0.01391495,-0.84375900,-0.53652436,0.00433925,-55.44643402,0.00066982,0.01730913,0.02723464,0.00105746,0.00742720,0.00045162,-0.00008787,-0.16554759,0.28401068,9.79583168,-0.09113168,0.00881681,0.01982307,0.07441591,-0.27519387,-9.77600861,0.11626053,0.00000000
S,-0.5,1730147596815362816,,-0.01538324,0.02907747,0.99916357,0.00137189,0.00242899,0.00156105,-0.00001524,0.00002904,0.00099943,0.00000122,0.00000172,0.00000144,,,,,,,,,,,,,,,,,,,,,,,
S,-0.5,1730147596816364800,,-0.01431451,0.02832078,0.99831128,0.00281572,0.00386800,0.00300215,-0.00001443,0.00002865,0.00099850,0.00000238,0.00000425,0.00000259,,,,,,,,,,,,,,,,,,,,,,,
S,-0.5,1730147596816691968,,,,,,,,,,,,,,0.01391880,-0.84375870,-0.53652465,0.00434265,-55.44643402,0.00066982,0.01730913,0.02723464,0.00105746,0.00272237,-0.00207694,-0.00068860,-0.15339527,0.27708524,9.79284477,-0.07899504,0.00179222,0.01683807,0.07440022,-0.27529302,-9.77600670,0.11626053,0.00000000
S,-0.5,1730147596817365760,,-0.01283633,0.02712468,1.00036585,0.00161568,0.00520864,-0.00034483,-0.00001276,0.00002710,0.00099972,0.00000229,0.00000542,0.00000072,,,,,,,,,,,,,,,,,,,,,,,
S,-0.5,1730147596818365952,,-0.01399476,0.02889903,0.99869376,0.00290073,0.00139960,0.00290044,-0.00001331,0.00002820,0.00099965,0.00000229,0.00000252,0.00000125,,,,,,,,,,,,,,,,,,,,,,,
S,-0.5,1730147596818692096,,,,,,,,,,,,,,0.01392163,-0.84375834,-0.53652513,0.00434456,-55.44643402,0.00066982,0.01730913,0.02723464,0.00105746,0.00410708,0.00186864,-0.00054364,-0.14150956,0.28094503,9.79193020,-0.06711105,0.00558534,0.01592636,0.07439852,-0.27535969,-9.77600384,0.11626053,0.00000000
S,-0.5,1730147596819365120,,-0.01316739,0.02941147,0.99682659,0.00279071,0.00422399,0.00238419,-0.00001369,0.00002988,0.00099663,0.00000322,0.00000250,0.00000351,,,,,,,,,,,,,,,,,,,,,,,
S,-0.5,1730147596820367104,,-0.01580473,0.02756207,0.99967635,0.00253939,0.00256051,0.00405113,-0.00001506,0.00002806,0.00099856,0.00000255,0.00000376,0.00000358,,,,,,,,,,,,,,,,,,,,,,,
S,-0.5,1730147596820699648,,,,,,,,,,,,,,0.01392560,-0.84375763,-0.53652614,0.00434588,-55.44643402,0.00066982,0.01730913,0.02723464,0.00105746,0.00401644,0.00014086,-0.00188329,-0.13056105,0.27650750,9.80323315,-0.05614221,0.00106859,0.02723122,0.07441884,-0.27543890,-9.77600193,0.11626053,0.00000000
S,-0.5,1730147596821374464,,-0.01947444,0.02564701,0.99913067,0.00721558,0.00153512,0.00273122,-0.00001965,0.00002541,0.00100014,0.00000629,0.00000119,0.00000350,,,,,,,,,,,,,,,,,,,,,,,
S,-0.5,1730147596822380800,,-0.01701229,0.02675106,0.99931073,0.00516888,0.00290420,0.00068207,-0.00001863,0.00002594,0.00099910,0.00000703,0.00000233,0.00000063,,,,,,,,,,,,,,,,,,,,,,,
S,-0.5,1730147596822705664,,,,,,,,,,,,,,0.01392951,-0.84375721,-0.53652674,0.00434745,-55.44643402,0.00066982,0.01730913,0.02723464,0.00105746,0.00428120,0.00138424,0.00045522,-0.14771071,0.27518588,9.79257011,-0.07327656,-0.00033405,0.01657009,0.07443415,-0.27551994,-9.77600002,0.11626053,0.00000000
S,-0.5,1730147596823386624,,-0.01585984,0.02684120,0.99912643,0.00644943,0.00465448,0.00119000,-0.00001529,0.00002718,0.00099922,0.00000557,0.00000477,0.00000045,,,,,,,,,,,,,,,,,,,,,,,
S,-0.5,1730147596824391424,,-0.01713457,0.02658761,0.99947292,0.01027254,0.00427228,-0.00106925,-0.00001654,0.00002666,0.00099935,0.00000999,0.00000490,-0.00000050,,,,,,,,,,,,,,,,,,,,,,,
S,-0.5,1730147596824710144,,,,,,,,,,,,,,0.01393538,-0.84375656,-0.53652757,0.00435037,-55.44643402,0.00066982,0.01730913,0.02723464,0.00105746,0.00876039,-0.00004848,-0.00249448,-0.18267675,0.25439370,9.79786587,-0.10822897,-0.02125356,0.02186966,0.07444777,-0.27564725,-9.77599621,0.11626053,0.00000000
S,-0.5,1730147596825395456,,-0.01674899,0.02747952,0.99867713,0.00568013,0.00533375,-0.00282741,-0.00001722,0.00002724,0.00099893,0.00000773,0.00000502,-0.00000323,,,,,,,,,,,,,,,,,,,,,,,
S,-0.5,1730147596826398464,,-0.01692996,0.02770486,0.99719423,0.00615470,0.00689997,-0.00008941,-0.00001677,0.00002795,0.00099721,0.00000461,0.00000695,-0.00000115,,,,,,,,,,,,,,,,,,,,,,,
S,-0.5,1730147596826713088,,,,,,,,,,,,,,0.01394469,-0.84375477,-0.53653008,0.00435478,-55.44643402,0.00066982,0.01730913,0.02723464,0.00105746,0.01171670,0.00252131,-0.00362581,-0.16216417,0.26147223,9.80028725,-0.08769054,-0.01437476,0.02429676,0.07447363,-0.27584699,-9.77599049,0.11626053,0.00000000
S,-0.5,1730147596827400704,,-0.01842785,0.02630437,0.99835217,0.00845222,0.00158963,-0.00426621,-0.00001821,0.00002663,0.00099767,0.00000819,0.00000305,-0.00000264,,,,,,,,,,,,,,,,,,,,,,,
S,-0.5,1730147596828401920,,-0.01703895,0.02664162,0.99725854,0.00884417,0.00559112,-0.00301600,-0.00001777,0.00002613,0.00099783,0.00000950,0.00000317,-0.00000457,,,,,,,,,,,,,,,,,,,,,,,
S,-0.5,1730147596828714496,,,,,,,,,,,,,,0.01395423,-0.84375256,-0.53653330,0.00435657,-55.44643402,0.00066982,0.01730913,0.02723464,0.00105746,0.00633784,0.00457573,-0.00427523,-0.16450167,0.27407199,9.77929306,-0.08995649,-0.00195092,0.00330830,0.07454517,-0.27602291,-9.77598476,0.11626053,0.00000000
S,-0.5,1730147596829402624,,-0.01592277,0.02772595,0.99865931,0.01389988,0.00771968,-0.00335223,-0.00001568,0.00002764,0.00099806,0.00001311,0.00000861,-0.00000289,,,,,,,,,,,,,,,,,,,,,,,
S,-0.5,1730147596830402304,,-0.01542240,0.02790643,0.99850124,0.01197318,0.01027872,-0.00404033,-0.00001516,0.00002822,0.00099898,0.00001393,0.00001049,-0.00000402,,,,,,,,,,,,,,,,,,,,,,,
S,-0.5,1730147596830714368,,,,,,,,,,,,,,0.01396311,-0.84374923,-0.53653824,0.00435894,-55.44643402,0.00066982,0.01730913,0.02723464,0.00105746,0.01123544,0.00079621,-0.00770139,-0.17424560,0.25629348,9.78532887,-0.09964461,-0.01990032,0.00934982,0.07460099,-0.27619380,-9.77597904,0.11626053,0.00000000
S,-0.5,1730147596831401728,,-0.01697510,0.02823097,0.99733430,0.01556793,0.01252521,-0.00268276,-0.00001653,0.00002823,0.00099750,0.00001430,0.00001293,-0.00000315,,,,,,,,,,,,,,,,,,,,,,,
S,-0.5,1730147596832403456,,-0.01544366,0.02776605,0.99760419,0.01861710,0.01129699,-0.00567026,-0.00001622,0.00002795,0.00099718,0.00001921,0.00001224,-0.00000470,,,,,,,,,,,,,,,,,,,,,,,
S,-0.5,1730147596832721920,,,,,,,,,,,,,,0.01397688,-0.84374511,-0.53654444,0.00436229,-55.44643402,0.00066982,0.01730913,0.02723464,0.00105746,0.01566370,0.00811377,-0.00715105,-0.14865093,0.27673244,9.79660702,-0.07395872,0.00027674,0.02063560,0.07469220,-0.27645570,-9.77597141,0.11626053,0.00000000
S,-0.5,1730147596833410560,,-0.01605409,0.02752685,0.99677116,0.01955443,0.00515070,-0.00619939,-0.00001546,0.00002742,0.00099701,0.00002035,0.00000588,-0.00000705,,,,,,,,,,,,,,,,,,,,,,,
S,-0.5,1730147596834416896,,-0.01576967,0.02839450,0.99597102,0.01750517,0.01417352,-0.00546505,-0.00001602,0.00002816,0.00099585,0.00001818,0.00001058,-0.00000577,,,,,,,,,,,,,,,,,,,,,,,
S,-0.5,1730147596834727936,,,,,,,,,,,,,,0.01399718,-0.84374088,-0.53655058,0.00436442,-55.44643402,0.00066982,0.01730913,0.02723464,0.00105746,0.02093850,0.00985769,-0.00782406,-0.15902559,0.27413738,9.77903175,-0.08415356,-0.00267500,0.00307178,0.07487204,-0.27681237,-9.77595997,0.11626053,0.00000000
S,-0.5,1730147596835422464,,-0.01557019,0.02885059,0.99696106,0.01995859,0.01382624,-0.00471013,-0.00001552,0.00002904,0.00099653,0.00001886,0.00001676,-0.00000461,,,,,,,,,,,,,,,,,,,,,,,
S,-0.5,1730147596836427008,,-0.01575655,0.02791983,0.99881977,0.02144529,0.01735235,-0.00627995,-0.00001566,0.00002823,0.00099880,0.00002196,0.00001660,-0.00000575,,,,,,,,,,,,,,,,,,,,,,,
S,-0.5,1730147596836732416,,,,,,,,,,,,,,0.01401929,-0.84373617,-0.53655744,0.00436765,-55.64196396,0.00066982,0.01730913,0.02723464,0.00105746,0.01990704,0.00820020,-0.00889561,-0.15706366,0.27616054,9.76596451,-0.08201046,-0.00104991,-0.00998306,0.07505321,-0.27721044,-9.77594757,-0.07926941,0.00000000
S,-0.5,1730147596837430784,,-0.01687661,0.02779042,0.99975610,0.02565280,0.01810361,-0.00861270,-0.00001673,0.00002752,0.00100018,0.00002536,0.00001909,-0.00000869,,,,,,,,,,,,,,,,,,,,,,,
S,-0.5,1730147596838433536,,-0.01726042,0.02666660,0.99963808,0.02798126,0.01603579,-0.00789942,-0.00001755,0.00002683,0.00099996,0.00002890,0.00001665,-0.00000877,,,,,,,,,,,,,,,,,,,,,,,
S,-0.5,1730147596838735360,,,,,,,,,,,,,,0.01404373,-0.84373105,-0.53656465,0.00436976,-55.64196396,0.00066982,0.01730913,0.02723464,0.00105746,0.02368729,0.01422361,-0.00888316,-0.15356407,0.27688465,9.79485512,-0.07828672,-0.00075057,0.01892185,0.07527734,-0.27763522,-9.77593327,-0.07926941,0.00000000
S,-0.5,1730147596839435776,,-0.01960443,0.02652350,0.99974352,0.02409455,0.01625656,-0.00222673,-0.00001930,0.00002619,0.00099969,0.00002554,0.00001556,-0.00000303,,,,,,,,,,,,,,,,,,,,,,,
S,-0.5,1730147596840436992,,-0.02023613,0.02838332,0.99821514,0.02135638,0.01858937,-0.00571643,-0.00002087,0.00002800,0.00099853,0.00002062,0.00001824,-0.00000328,,,,,,,,,,,,,,,,,,,,,,,
S,-0.5,1730147596840736512,,,,,,,,,,,,,,0.01407434,-0.84372514,-0.53657311,0.00437216,-55.64196396,0.00066982,0.01730913,0.02723464,0.00105746,0.03062866,0.01427308,-0.01190029,-0.17207740,0.26311129,9.80623436,-0.09651570,-0.01505336,0.03031826,0.07556170,-0.27816465,-9.77591610,-0.07926941,0.00000000
S,-0.5,1730147596841437440,,-0.01966956,0.02715532,0.99880213,0.02378566,0.02191213,-0.01000849,-0.00001997,0.00002797,0.00099821,0.00002247,0.00002205,-0.00001034,,,,,,,,,,,,,,,,,,,,,,,
S,-0.5,1730147596842437120,,-0.01801100,0.02718737,0.99746525,0.02624473,0.02291371,-0.00768804,-0.00001813,0.00002679,0.00099790,0.00002657,0.00002379,-0.00000948,,,,,,,,,,,,,,,,,,,,,,,
S,-0.5,1730147596842736128,,,,,,,,,,,,,,0.01410481,-0.84371990,-0.53658050,0.00437354,-55.64196396,0.00066982,0.01730913,0.02723464,0.00105746,0.02234788,0.01585826,-0.00640542,-0.20464225,0.27458090,9.79219913,-0.12878090,-0.00410026,0.01630020,0.07586136,-0.27868116,-9.77589893,-0.07926941,0.00000000
S,-0.5,1730147596843440128,,-0.01635910,0.02672070,0.99718165,0.02307049,0.02278144,-0.01028341,-0.00001613,0.00002682,0.00099681,0.00002443,0.00002312,-0.00000907,,,,,,,,,,,,,,,,,,,,,,,
S,-0.5,1730147596844442112,,-0.01631392,0.02716369,0.99843323,0.02438364,0.02332946,-0.00933936,-0.00001580,0.00002693,0.00099812,0.00002313,0.00002319,-0.00001034,,,,,,,,,,,,,,,,,,,,,,,
S,-0.5,1730147596844738048,,,,,,,,,,,,,,0.01415728,-0.84419906,-0.53582549,0.00431965,-55.64196396,0.00066717,0.01728339,0.02719416,0.00105264,0.02830286,0.02141175,-0.01260462,-0.17781553,0.26273000,9.78600693,-0.10076367,-0.01632041,0.01012707,0.07705186,-0.27905041,-9.77587986,-0.07926941,0.00000000
S,-0.5,1730147596845448960,,-0.01543273,0.02939776,0.99922228,0.02250055,0.02390233,-0.00782493,-0.00001558,0.00002913,0.00099948,0.00002326,0.00002397,-0.00000780,,,,,,,,,,,,,,,,,,,,,,,
S,-0.5,1730147596846455040,,-0.01393924,0.02947938,0.99748445,0.02642476,0.02097032,-0.00766346,-0.00001393,0.00003018,0.00099805,0.00002511,0.00002169,-0.00000721,,,,,,,,,,,,,,,,,,,,,,,
S,-0.5,1730147596846743552,,,,,,,,,,,,,,0.01419109,-0.84419179,-0.53583610,0.00431589,-55.64196396,0.00066717,0.01728339,0.02719416,0.00105264,0.02486631,0.02081016,-0.01346577,-0.15490894,0.26413766,9.78816986,-0.07743704,-0.01543051,0.01230812,0.07747190,-0.27956817,-9.77586174,-0.07926941,0.00000000
S,-0.5,1730147596847460352,,-0.01547829,0.02884765,0.99833030,0.02770031,0.02170244,-0.00751350,-0.00001472,0.00002899,0.00099762,0.00002872,0.00002064,-0.00000749,,,,,,,,,,,,,,,,,,,,,,,
S,-0.5,1730147596848464896,,-0.01569040,0.02877769,0.99850577,0.02685358,0.02280475,-0.00891727,-0.00001614,0.00002859,0.00099874,0.00002741,0.00002284,-0.00000861,,,,,,,,,,,,,,,,,,,,,,,
S,-0.5,1730147596848748288,,,,,,,,,,,,,,0.01422372,-0.84418511,-0.53584576,0.00431264,-55.64196396,0.00066717,0.01728339,0.02719416,0.00105264,0.02684401,0.01930774,-0.01033952,-0.13660577,0.29592380,9.78754044,-0.05873503,0.01585197,0.01169682,0.07787074,-0.28007182,-9.77584362,-0.07926941,0.00000000
S,-0.5,1730147596849468928,,-0.01742836,0.02784763,1.00003934,0.02797447,0.02432076,-0.00905371,-0.00001718,0.00002799,0.00099982,0.00002750,0.00002440,-0.00000948,,,,,,,,,,,,,,,,,,,,,,,
S,-0.5,1730147596850471936,,-0.01884973,0.02753725,0.99769074,0.02425956,0.02366392,-0.00893980,-0.00001914,0.00002730,0.00099861,0.00002529,0.00002427,-0.00000900,,,,,,,,,,,,,,,,,,,,,,,
S,-0.5,1730147596850751488,,,,,,,,,,,,,,0.01425805,-0.84417886,-0.53585470,0.00431070,-55.64196396,0.00066717,0.01728339,0.02719416,0.00105264,0.02914510,0.02045988,-0.01174324,-0.15829840,0.28036430,9.79432487,-0.08003270,-0.00025314,0.01850033,0.07826570,-0.28061745,-9.77582455,-0.07926941,0.00000000
S,-0.5,1730147596851474432,,-0.01836924,0.02693704,0.99718845,0.02415428,0.02133331,-0.01004629,-0.00001891,0.00002695,0.00099653,0.00002299,0.00002155,-0.00000981,,,,,,,,,,,,,,,,,,,,,,,
S,-0.5,1730147596852475904,,-0.01697752,0.02725008,0.99815917,0.02470536,0.02014957,-0.01129493,-0.00001708,0.00002700,0.00099782,0.00002457,0.00001962,-0.00001142,,,,,,,,,,,,,,,,,,,,,,,
S,-0.5,1730147596852752640,,,,,,,,,,,,,,0.01429316,-0.84417206,-0.53586435,0.00430770,-55.64196396,0.00066717,0.01728339,0.02719416,0.00105264,0.02702296,0.02188818,-0.01213269,-0.18774520,0.26769626,9.79297543,-0.10905881,-0.01346835,0.01716995,0.07868639,-0.28116462,-9.77580547,-0.07926941,0.00000000
S,-0.5,1730147596853476864,,-0.01654965,0.02785615,0.99951696,0.02457611,0.02357560,-0.00858665,-0.00001618,0.00002785,0.00099958,0.00002478,0.00002258,-0.00000948,,,,,,,,,,,,,,,,,,,,,,,
S,-0.5,1730147596854476800,,-0.01520201,0.02922332,1.00166523,0.02566144,0.02084221,-0.00420689,-0.00001531,0.00002917,0.00100171,0.00002542,0.00002243,-0.00000414,,,,,,,,,,,,,,,,,,,,,,,
S,-0.5,1730147596854752512,,,,,,,,,,,,,,0.01432621,-0.84416467,-0.53587526,0.00430528,-55.64196396,0.00066717,0.01728339,0.02719416,0.00105264,0.02630337,0.01724515,-0.01454904,-0.16747089,0.26480189,9.78530025,-0.08839442,-0.01688197,0.00951290,0.07907647,-0.28168386,-9.77578735,-0.07926941,0.00000000
S,-0.5,1730147596855475968,,-0.01688338,0.02982586,1.00355220,0.02076321,0.01736483,-0.00975659,-0.00001615,0.00003015,0.00100389,0.00002200,0.00001713,-0.00000735,,,,,,,,,,,,,,,,,,,,,,,
S,-0.5,1730147596856481280,,-0.01625122,0.03093577,1.00252450,0.01981267,0.02153786,-0.00871853,-0.00001690,0.00003093,0.00100331,0.00001843,0.00001967,-0.00001067,,,,,,,,,,,,,,,,,,,,,,,
S,-0.5,1730147596856757760,,,,,,,,,,,,,,0.01435881,-0.84415853,-0.53588408,0.00430370,-55.64196396,0.00066717,0.01728339,0.02719416,0.00105264,0.02715476,0.02005173,-0.00726934,-0.15014611,0.28603932,9.82339191,-0.07069889,0.00383461,0.04762268,0.07944722,-0.28220472,-9.77576923,-0.07926941,0.00000000
S,-0.5,1730147596857485824,,-0.01544650,0.03138060,1.00009108,0.01881496,0.02033245,-0.00603927,-0.00001539,0.00003165,0.00100021,0.00001869,0.00002188,-0.00000620,,,,,,,,,,,,,,,,,,,,,,,
S,-0.5,1730147596858489600,,-0.01619262,0.03183142,1.00038445,0.01724850,0.01589521,-0.00615090,-0.00001580,0.00003189,0.00099956,0.00001722,0.00001632,-0.00000528,,,,,,,,,,,,,,,,,,,,,,,
S,-0.5,1730147596858763264,,,,,,,,,,,,,,0.01438884,-0.84415263,-0.53589261,0.00430047,-55.64196396,0.00066717,0.01728339,0.02719416,0.00105264,0.02015787,0.01729514,-0.01380242,-0.16574706,0.30327657,9.83912945,-0.08592878,0.02061099,0.06337643,0.07981829,-0.28266558,-9.77575302,-0.07926941,0.00000000
S,-0.5,1730147596859494656,,-0.01517561,0.03235792,1.00191271,0.01769756,0.01366342,-0.00326284,-0.00001560,0.00003241,0.00100173,0.00001712,0.00001266,-0.00000382,,,,,,,,,,,,,,,,,,,,,,,
S,-0.5,1730147596860498688,,-0.01608388,0.03413753,1.00265563,0.01089160,0.01649147,-0.00015517,-0.00001560,0.00003398,0.00100301,0.00001227,0.00001527,0.00000020,,,,,,,,,,,,,,,,,,,,,,,
S,-0.5,1730147596860767488,,,,,,,,,,,,,,0.01441376,-0.84414649,-0.53590167,0.00429760,-55.64196396,0.00066717,0.01728339,0.02719416,0.00105264,0.01894718,0.01394008,-0.00840655,-0.15494935,0.31274375,9.80230236,-0.07481945,0.02969769,0.02656269,0.08012990,-0.28304607,-9.77573967,-0.07926941,0.00000000
S,-0.5,1730147596861502208,,-0.01666961,0.03281754,1.00436282,0.01252797,0.01359813,-0.00337210,-0.00001685,0.00003362,0.00100429,0.00001006,0.00001502,-0.00000180,,,,,,,,,,,,,,,,,,,,,,,
S,-0.5,1730147596862504704,,-0.01712378,0.03241448,1.00077474,0.01092776,0.01516483,-0.00053321,-0.00001723,0.00003207,0.00100197,0.00001174,0.00001396,-0.00000207,,,,,,,,,,,,,,,,,,,,,,,
S,-0.5,1730147596862770176,,,,,,,,,,,,,,0.01443488,-0.84414327,-0.53590620,0.00429502,-55.64196396,0.00066717,0.01728339,0.02719416,0.00105264,0.01400277,0.01288959,-0.00292926,-0.15293805,0.33324346,9.83613968,-0.07254265,0.04987618,0.06041145,0.08039540,-0.28336728,-9.77572823,-0.07926941,0.00000000
S,-0.5,1730147596863506432,,-0.01531051,0.03136544,1.00185490,0.00958401,0.01032154,0.00063626,-0.00001578,0.00003143,0.00100052,0.00000932,0.00001170,0.00000133,,,,,,,,,,,,,,,,,,,,,,,
S,-0.5,1730147596864507392,,-0.01494842,0.03340666,0.99998969,0.00644634,0.01151555,0.00126959,-0.00001444,0.00003270,0.00100067,0.00000659,0.00000976,0.00000153,,,,,,,,,,,,,,,,,,,,,,,
S,-0.5,1730147596864770816,,,,,,,,,,,,,,0.01445305,-0.84414095,-0.53590941,0.00429200,-55.64196396,0.00066717,0.01728339,0.02719416,0.00105264,0.01347103,0.01158156,-0.00520176,-0.16894525,0.31447658,9.82597065,-0.08830833,0.03084138,0.05025196,0.08063692,-0.28363520,-9.77571869,-0.07926941,0.00000000
S,-0.5,1730147596865507840,,-0.01562592,0.03451287,0.99839902,0.00495320,0.00756787,0.00288899,-0.00001539,0.00003496,0.00099809,0.00000423,0.00000867,0.00000280,,,,,,,,,,,,,,,,,,,,,,,
S,-0.5,1730147596866507264,,-0.01697920,0.03382542,0.99948829,0.00454759,0.00633524,0.00303033,-0.00001695,0.00003430,0.00099878,0.00000415,0.00000530,0.00000352,,,,,,,,,,,,,,,,,,,,,,,
S,-0.5,1730147596866770176,,,,,,,,,,,,,,0.01446734,-0.84413898,-0.53591210,0.00428979,-55.64196396,0.00066717,0.01728339,0.02719416,0.00105264,0.00832035,0.00737930,-0.00160199,-0.14157723,0.32069358,9.81324291,-0.06075301,0.03684592,0.03753281,0.08082422,-0.28384766,-9.77571011,-0.07926941,0.00000000
S,-0.5,1730147596867505920,,-0.01493388,0.03153314,0.99947143,0.00291990,0.00571922,0.00039713,-0.00001574,0.00003173,0.00099982,0.00000309,0.00000544,0.00000092,,,,,,,,,,,,,,,,,,,,,,,
S,-0.5,1730147596868507648,,-0.01452398,0.03013069,0.99756402,0.00404801,0.00726450,0.00597802,-0.00001395,0.00002966,0.00099791,0.00000332,0.00000679,0.00000413,,,,,,,,,,,,,,,,,,,,,,,
S,-0.5,1730147596868772096,,,,,,,,,,,,,,0.01447610,-0.84413856,-0.53591251,0.00428923,-55.64196396,0.00066717,0.01728339,0.02719416,0.00105264,0.00587765,0.00292497,0.00039135,-0.16620995,0.33639202,9.79472542,-0.08528466,0.05240566,0.01902008,0.08092529,-0.28398636,-9.77570534,-0.07926941,0.00000000
S,-0.5,1730147596869508608,,-0.01715200,0.02820983,0.99714589,0.00186232,0.00677354,0.00611351,-0.00001654,0.00002811,0.00099661,0.00000262,0.00000735,0.00000787,,,,,,,,,,,,,,,,,,,,,,,
S,-0.5,1730147596870509056,,-0.01712183,0.03000255,1.00091553,-0.00367201,0.00422229,0.00518962,-0.00001796,0.00002906,0.00100010,-0.00000336,0.00000453,0.00000540,,,,,,,,,,,,,,,,,,,,,,,
S,-0.5,1730147596870778368,,,,,,,,,,,,,,0.01448268,-0.84413886,-0.53591186,0.00428908,-55.64196396,0.00066717,0.01728339,0.02719416,0.00105264,0.00505658,0.00441001,0.00099709,-0.13677841,0.29082471,9.78610706,-0.05578180,0.00673136,0.01040459,0.08099661,-0.28409335,-9.77570248,-0.07926941,0.00000000
S,-0.5,1730147596871514368,,-0.01604840,0.03052566,0.99951553,-0.00447140,0.00031966,0.00326761,-0.00001623,0.00003100,0.00100097,-0.00000609,0.00000022,0.00000332,,,,,,,,,,,,,,,,,,,,,,,
S,-0.5,1730147596872518656,,-0.01505344,0.03158433,1.00084662,-0.00252248,-0.00515071,0.00633351,-0.00001489,0.00003156,0.00100016,-0.00000313,-0.00000540,0.00000516,,,,,,,,,,,,,,,,,,,,,,,
S,-0.5,1730147596872782336,,,,,,,,,,,,,,0.01448587,-0.84413975,-0.53591043,0.00428725,-55.64196396,0.00066717,0.01728339,0.02719416,0.00105264,-0.00163055,0.00215191,0.00227185,-0.17616276,0.28502932,9.80760670,-0.09510294,0.00090221,0.03190613,0.08105983,-0.28412712,-9.77570057,-0.07926941,0.00000000
S,-0.5,1730147596873522176,,-0.01502635,0.02974018,1.00218189,-0.00538765,-0.00388561,0.00591512,-0.00001471,0.00003041,0.00100236,-0.00000425,-0.00000586,0.00000697,,,,,,,,,,,,,,,,,,,,,,,
S,-0.5,1730147596874524672,,-0.01548586,0.03183130,1.00217152,-0.00675106,-0.00995269,0.00646449,-0.00001539,0.00003086,0.00100260,-0.00000742,-0.00000845,0.00000623,,,,,,,,,,,,,,,,,,,,,,,
S,-0.5,1730147596874784768,,,,,,,,,,,,,,0.01448308,-0.84414095,-0.53590864,0.00428884,-55.64196396,0.00066717,0.01728339,0.02719416,0.00105264,-0.00139938,-0.00777669,0.00203591,-0.14604118,0.30948550,9.80821133,-0.06503758,0.02538764,0.03250980,0.08100361,-0.28409785,-9.77570152,-0.07926941,0.00000000
S,-0.5,1730147596875526656,,-0.01479824,0.03182101,1.00262868,-0.00613350,-0.00910417,0.00897040,-0.00001507,0.00003249,0.00100254,-0.00000668,-0.00001119,0.00000869,,,,,,,,,,,,,,,,,,,,,,,
S,-0.5,1730147596876527616,,-0.01510414,0.03191198,1.00188732,-0.00813144,-0.00739927,0.00840467,-0.00001483,0.00003189,0.00100217,-0.00000757,-0.00000744,0.00000931,,,,,,,,,,,,,,,,,,,,,,,
S,-0.5,1730147596876785920,,,,,,,,,,,,,,0.01447509,-0.84414232,-0.53590661,0.00429483,-55.12935638,0.00066717,0.01728339,0.02719416,0.00105264,-0.00568369,-0.01082531,0.00310273,-0.15095901,0.30267337,9.83213043,-0.07013872,0.01864433,0.05642509,0.08082029,-0.28402904,-9.77570534,0.43333817,0.00000000
S,-0.5,1730147596877528320,,-0.01691842,0.02974897,1.00288224,-0.01106248,-0.00677125,0.00957458,-0.00001669,0.00003017,0.00100247,-0.00001117,-0.00000634,0.00000918,,,,,,,,,,,,,,,,,,,,,,,
S,-0.5,1730147596878528000,,-0.01585284,0.02645851,1.00286019,-0.01265480,-0.00945507,0.01189736,-0.00001662,0.00002637,0.00100318,-0.00001330,-0.00000877,0.00001185,,,,,,,,,,,,,,,,,,,,,,,
S,-0.5,1730147596878785536,,,,,,,,,,,,,,0.01446468,-0.84414482,-0.53590286,0.00430052,-55.12935638,0.00066717,0.01728339,0.02719416,0.00105264,-0.00584021,-0.00981657,0.00617635,-0.14543261,0.31275466,9.82790661,-0.06481675,0.02883753,0.05219650,0.08061586,-0.28391713,-9.77571011,0.43333817,0.00000000
S,-0.5,1730147596879526656,,-0.01702428,0.02768771,1.00065565,-0.01046093,-0.00993523,0.01393778,-0.00001647,0.00002642,0.00100105,-0.00001137,-0.00001070,0.00001431,,,,,,,,,,,,,,,,,,,,,,,
S,-0.5,1730147596880528384,,-0.01537371,0.02772205,1.00024772,-0.00669521,-0.00947573,0.01236349,-0.00001605,0.00002811,0.00099962,-0.00000668,-0.00000971,0.00001330,,,,,,,,,,,,,,,,,,,,,,,
S,-0.5,1730147596880787200,,,,,,,,,,,,,,0.01445168,-0.84414887,-0.53589678,0.00430482,-55.12935638,0.00066717,0.01728339,0.02719416,0.00105264,-0.01156682,-0.01114518,0.00871897,-0.16302313,0.25857851,9.83784485,-0.08261640,-0.02516967,0.06212807,0.08040673,-0.28374818,-9.77571678,0.43333817,0.00000000
S,-0.5,1730147596881529600,,-0.01587452,0.03063830,0.99849099,-0.00450879,-0.01410402,0.00969413,-0.00001526,0.00003012,0.00099868,-0.00000371,-0.00001312,0.00000968,,,,,,,,,,,,,,,,,,,,,,,
S,-0.5,1730147596882531072,,-0.01800306,0.02966787,0.99956971,-0.01050426,-0.01629289,0.01201144,-0.00001778,0.00003077,0.00099881,-0.00000872,-0.00001737,0.00001074,,,,,,,,,,,,,,,,,,,,,,,
S,-0.5,1730147596882788608,,,,,,,,,,,,,,0.01443844,-0.84415400,-0.53588903,0.00431033,-55.12935638,0.00066717,0.01728339,0.02719416,0.00105264,-0.00494942,-0.01208970,0.01017024,-0.15736312,0.27564007,9.80292606,-0.07718887,-0.00794813,0.02720261,0.08017424,-0.28358820,-9.77572346,0.43333817,0.00000000
S,-0.5,1730147596883535872,,-0.01846278,0.02821374,1.00135601,-0.01317939,-0.01447462,0.01618486,-0.00001906,0.00002817,0.00100137,-0.00001460,-0.00001550,0.00001616,,,,,,,,,,,,,,,,,,,,,,,
S,-0.5,1730147596884539904,,-0.01811619,0.02949258,1.00055337,-0.00872921,-0.01303076,0.01339600,-0.00001833,0.00002880,0.00100127,-0.00001039,-0.00001271,0.00001523,,,,,,,,,,,,,,,,,,,,,,,
S,-0.5,1730147596884792576,,,,,,,,,,,,,,0.01442484,-0.84415877,-0.53588176,0.00432070,-55.12935638,0.00066717,0.01728339,0.02719416,0.00105264,-0.00698733,-0.01974607,0.00761196,-0.17431690,0.30177066,9.79502487,-0.09445892,0.01829773,0.01929474,0.07985798,-0.28347293,-9.77573013,0.43333817,0.00000000
S,-0.5,1730147596885542912,,-0.01597367,0.02709976,1.00085342,-0.01208586,-0.01430172,0.01402804,-0.00001625,0.00002794,0.00100054,-0.00001006,-0.00001361,0.00001303,,,,,,,,,,,,,,,,,,,,,,,
S,-0.5,1730147596886546432,,-0.01562425,0.02780372,1.00045896,-0.01256942,-0.01377784,0.01680399,-0.00001501,0.00002691,0.00100063,-0.00001355,-0.00001428,0.00001650,,,,,,,,,,,,,,,,,,,,,,,
S,-0.5,1730147596886796032,,,,,,,,,,,,,,0.01440886,-0.84416407,-0.53587371,0.00433136,-55.12935638,0.00066717,0.01728339,0.02719416,0.00105264,-0.00865763,-0.01509196,0.01210238,-0.17971401,0.28240907,9.81908131,-0.10020220,-0.00091249,0.04334450,0.07951181,-0.28332156,-9.77573681,0.43333817,0.00000000
S,-0.5,1730147596887548928,,-0.01445815,0.03063665,0.99873132,-0.01254721,-0.01154428,0.01601355,-0.00001456,0.00003035,0.00099892,-0.00001271,-0.00001178,0.00001704,,,,,,,,,,,,,,,,,,,,,,,
S,-0.5,1730147596888550400,,-0.01629568,0.03093378,0.99755472,-0.01398942,-0.01249305,0.01537809,-0.00001559,0.00003178,0.00099722,-0.00001372,-0.00001161,0.00001524,,,,,,,,,,,,,,,,,,,,,,,
S,-0.5,1730147596888797696,,,,,,,,,,,,,,0.01439165,-0.84417099,-0.53586322,0.00433945,-55.12935638,0.00066717,0.01728339,0.02719416,0.00105264,-0.01181837,-0.01665523,0.01337204,-0.14715549,0.26393497,9.81278992,-0.06796125,-0.01918846,0.03704548,0.07919424,-0.28312343,-9.77574444,0.43333817,0.00000000
S,-0.5,1730147596889551104,,-0.01670021,0.02904113,0.99900979,-0.01345517,-0.01380442,0.01390229,-0.00001721,0.00002948,0.00099837,-0.00001401,-0.00001387,0.00001397,,,,,,,,,,,,,,,,,,,,,,,
S,-0.5,1730147596890550784,,-0.02006229,0.02893263,0.99913949,-0.01457718,-0.01727809,0.01454407,-0.00001958,0.00002835,0.00099958,-0.00001420,-0.00001706,0.00001396,,,,,,,,,,,,,,,,,,,,,,,
S,-0.5,1730147596890797056,,,,,,,,,,,,,,0.01437334,-0.84417796,-0.53585279,0.00434619,-55.12935638,0.00066717,0.01728339,0.02719416,0.00105264,-0.01198866,-0.01398735,0.01211317,-0.15289213,0.31166959,9.77937412,-0.07400466,0.02877685,0.00362015,0.07888747,-0.28289273,-9.77575397,0.43333817,0.00000000
S,-0.5,1730147596891549440,,-0.01765956,0.02966665,0.99820161,-0.01809525,-0.01243070,0.01392307,-0.00001917,0.00002950,0.00099841,-0.00001781,-0.00001442,0.00001424,,,,,,,,,,,,,,,,,,,,,,,
S,-0.5,1730147596892551936,,-0.01783135,0.03030890,0.99735051,-0.01671050,-0.01617804,0.01455477,-0.00001704,0.00003043,0.00099721,-0.00001808,-0.00001395,0.00001424,,,,,,,,,,,,,,,,,,,,,,,
S,-0.5,1730147596892799488,,,,,,,,,,,,,,0.01435401,-0.84418422,-0.53584337,0.00435391,-55.12935638,0.00066717,0.01728339,0.02719416,0.00105264,-0.01247161,-0.01944202,0.01082894,-0.19201356,0.27801725,9.80252171,-0.11345937,-0.00463817,0.02675819,0.07855419,-0.28265542,-9.77576351,0.43333817,0.00000000
S,-0.5,1730147596893553664,,-0.01726181,0.02892395,0.99800450,-0.01255022,-0.01475643,0.01309028,-0.00001742,0.00002938,0.00099761,-0.00001287,-0.00001621,0.00001356,,,,,,,,,,,,,,,,,,,,,,,
S,-0.5,1730147596894554368,,-0.01735563,0.02691137,0.99928039,-0.01733253,-0.01559357,0.01171339,-0.00001716,0.00002684,0.00099926,-0.00001514,-0.00001499,0.00001150,,,,,,,,,,,,,,,,,,,,,,,
S,-0.5,1730147596894800640,,,,,,,,,,,,,,0.01433221,-0.84419024,-0.53583443,0.00436145,-55.12935638,0.00066717,0.01728339,0.02719416,0.00105264,-0.01635028,-0.01633185,0.01111356,-0.16705987,0.29837558,9.77925587,-0.08886159,0.01600018,0.00348091,0.07819828,-0.28237540,-9.77577496,0.43333817,0.00000000
S,-0.5,1730147596895555072,,-0.01515231,0.02644569,0.99975342,-0.01774086,-0.01264633,0.01134828,-0.00001558,0.00002589,0.00100007,-0.00001919,-0.00001345,0.00001098,,,,,,,,,,,,,,,,,,,,,,,
S,-0.5,1730147596896554752,,-0.01262498,0.02902383,0.99898309,-0.01629230,-0.01177905,0.01193578,-0.00001238,0.00002841,0.00099927,-0.00001669,-0.00001100,0.00001171,,,,,,,,,,,,,,,,,,,,,,,
S,-0.5,1730147596896804352,,,,,,,,,,,,,,0.01431058,-0.84419560,-0.53582650,0.00436784,-55.12935638,0.00066717,0.01728339,0.02719416,0.00105264,-0.01340771,-0.01736660,0.00836862,-0.16825660,0.26317132,9.79936123,-0.09039325,-0.01891467,0.02357578,0.07786334,-0.28208598,-9.77578545,0.43333817,0.00000000
S,-0.5,1730147596897557760,,-0.01471335,0.02884781,0.99791014,-0.01723537,-0.01162994,0.01363457,-0.00001353,0.00002970,0.00099786,-0.00001660,-0.00001138,0.00001351,,,,,,,,,,,,,,,,,,,,,,,
S,-0.5,1730147596898559744,,-0.01514900,0.02824373,0.99798620,-0.01846851,-0.01313540,0.01054233,-0.00001573,0.00002830,0.00099763,-0.00001854,-0.00001281,0.00001164,,,,,,,,,,,,,,,,,,,,,,,
S,-0.5,1730147596898807296,,,,,,,,,,,,,,0.01429033,-0.84420025,-0.53581965,0.00437334,-55.12935638,0.00066717,0.01728339,0.02719416,0.00105264,-0.01495382,-0.01337613,0.00858406,-0.12143611,0.27858129,9.79952717,-0.04387808,-0.00322878,0.02373123,0.07755803,-0.28181008,-9.77579594,0.43333817,0.00000000
S,-0.5,1730147596899561984,,-0.01507468,0.02886499,0.99859351,-0.01397588,-0.01010719,0.01447827,-0.00001523,0.00002856,0.00099851,-0.00001518,-0.00001114,0.00001278,,,,,,,,,,,,,,,,,,,,,,,
S,-0.5,1730147596900563200,,-0.01399983,0.02791654,0.99973762,-0.01221895,-0.01134620,0.01298346,-0.00001417,0.00002829,0.00099972,-0.00001111,-0.00001016,0.00001451,,,,,,,,,,,,,,,,,,,,,,,
S,-0.5,1730147596900808192,,,,,,,,,,,,,,0.01426923,-0.84420502,-0.53581268,0.00437701,-55.12935638,0.00066717,0.01728339,0.02719416,0.00105264,-0.01681300,-0.01519205,0.00851614,-0.15430252,0.27750167,9.78341675,-0.07702860,-0.00399917,0.00760937,0.07727392,-0.28150085,-9.77580738,0.43333817,0.00000000
S,-0.5,1730147596901563392,,-0.01268970,0.02760855,0.99944711,-0.01471230,-0.00990082,0.01241525,-0.00001259,0.00002736,0.00099986,-0.00001370,-0.00001056,0.00001204,,,,,,,,,,,,,,,,,,,,,,,
S,-0.5,1730147596902562816,,-0.01347181,0.02720671,0.99917179,-0.01183978,-0.00874149,0.00860102,-0.00001291,0.00002718,0.00099913,-0.00001316,-0.00000849,0.00000911,,,,,,,,,,,,,,,,,,,,,,,
S,-0.5,1730147596902807296,,,,,,,,,,,,,,0.01425071,-0.84421051,-0.53580451,0.00438184,-55.12935638,0.00066717,0.01728339,0.02719416,0.00105264,-0.00937647,-0.01253481,0.01137914,-0.13897537,0.27740031,9.80393410,-0.06197811,-0.00384605,0.02811718,0.07699726,-0.28124636,-9.77581692,0.43333817,0.00000000
S,-0.5,1730147596903561216,,-0.01616579,0.02730029,0.99729049,-0.01284024,-0.00557590,0.00990212,-0.00001593,0.00002716,0.00099754,-0.00001174,-0.00000578,0.00000845,,,,,,,,,,,,,,,,,,,,,,,
S,-0.5,1730147596904563200,,-0.01644223,0.02584606,0.99866939,-0.01143268,-0.00245190,0.00706836,-0.00001725,0.00002614,0.00099782,-0.00001201,-0.00000201,0.00000800,,,,,,,,,,,,,,,,,,,,,,,
S,-0.5,1730147596904809216,,,,,,,,,,,,,,0.01423562,-0.84421527,-0.53579742,0.00438627,-55.12935638,0.00066717,0.01728339,0.02719416,0.00105264,-0.01142370,-0.01086970,0.00598440,-0.12663187,0.26656169,9.79811192,-0.04986829,-0.01448265,0.02228737,0.07676358,-0.28104433,-9.77582455,0.43333817,0.00000000
S,-0.5,1730147596905564416,,-0.01530016,0.02556683,0.99799198,-0.00937492,-0.00202862,0.00441221,-0.00001560,0.00002515,0.00099855,-0.00000930,-0.00000111,0.00000399,,,,,,,,,,,,,,,,,,,,,,,
S,-0.5,1730147596906565376,,-0.01504732,0.02616252,0.99848545,-0.01029748,0.00122690,0.00363776,-0.00001473,0.00002597,0.00099818,-0.00000947,0.00000077,0.00000293,,,,,,,,,,,,,,,,,,,,,,,
S,-0.5,1730147596906810368,,,,,,,,,,,,,,0.01422235,-0.84421819,-0.53579295,0.00438697,-55.12935638,0.00066717,0.01728339,0.02719416,0.00105264,-0.01027523,-0.00438950,0.00486861,-0.16916314,0.25634623,9.78527164,-0.09255180,-0.02448675,0.00943947,0.07661134,-0.28083298,-9.77583218,0.43333817,0.00000000
S,-0.5,1730147596907565568,,-0.01612313,0.02842066,0.99594843,-0.00860781,0.00105599,0.00006507,-0.00001585,0.00002820,0.00099657,-0.00000921,0.00000212,0.00000047,,,,,,,,,,,,,,,,,,,,,,,
S,-0.5,1730147596908564736,,-0.01571148,0.02866665,0.99652570,-0.00471294,0.00482476,0.00186159,-0.00001613,0.00002934,0.00099561,-0.00000488,0.00000409,0.00000040,,,,,,,,,,,,,,,,,,,,,,,
S,-0.5,1730147596908814080,,,,,,,,,,,,,,0.01421312,-0.84421962,-0.53579110,0.00438471,-55.12935638,0.00066717,0.01728339,0.02719416,0.00105264,-0.00774320,-0.00160750,-0.00019577,-0.14445086,0.25463355,9.78880405,-0.06789944,-0.02602369,0.01296711,0.07655142,-0.28065723,-9.77583694,0.43333817,0.00000000
S,-0.5,1730147596909568000,,-0.01488184,0.02862664,0.99564070,-0.00760096,0.00740517,0.00281811,-0.00001490,0.00002871,0.00099599,-0.00000584,0.00000814,0.00000322,,,,,,,,,,,,,,,,,,,,,,,
S,-0.5,1730147596910570240,,-0.01617126,0.02705833,0.99400413,-0.00446158,0.00798418,0.00203882,-0.00001567,0.00002733,0.00099402,-0.00000595,0.00000870,0.00000248,,,,,,,,,,,,,,,,,,,,,,,
S,-0.5,1730147596910816512,,,,,,,,,,,,,,0.01420856,-0.84421891,-0.53579235,0.00438173,-55.12935638,0.00066717,0.01728339,0.02719416,0.00105264,-0.00315111,0.00170797,-0.00273081,-0.15817025,0.28773785,9.76363087,-0.08161704,0.00718737,-0.01220989,0.07655321,-0.28055048,-9.77584076,0.43333817,0.00000000
S,-0.5,1730147596911571968,,-0.01576751,0.02654782,0.99558574,-0.00198216,0.00880560,0.00034759,-0.00001625,0.00002614,0.00099478,-0.00000143,0.00000884,0.00000041,,,,,,,,,,,,,,,,,,,,,,,
S,-0.5,1730147596912572672,,-0.01584242,0.02803316,0.99636310,0.00052838,0.00832703,-0.00023407,-0.00001570,0.00002760,0.00099673,0.00000086,0.00000868,-0.00000067,,,,,,,,,,,,,,,,,,,,,,,
S,-0.5,1730147596912817408,,,,,,,,,,,,,,0.01420761,-0.84421808,-0.53579372,0.00437634,-55.12935638,0.00066717,0.01728339,0.02719416,0.00105264,-0.00421961,0.00632271,-0.00064389,-0.15369916,0.26802096,9.74800396,-0.07706650,-0.01245722,-0.02783775,0.07663266,-0.28047818,-9.77584171,0.43333817,0.00000000
S,-0.5,1730147596913572864,,-0.01596731,0.02839660,0.99476302,0.00285471,0.01066626,-0.00241156,-0.00001597,0.00002880,0.00099530,0.00000323,0.00001009,-0.00000220,,,,,,,,,,,,,,,,,,,,,,,
S,-0.5,1730147596914572032,,-0.01788084,0.02682532,0.99582899,0.00491006,0.01451456,-0.00675596,-0.00001757,0.00002723,0.00099513,0.00000528,0.00001456,-0.00000666,,,,,,,,,,,,,,,,,,,,,,,
S,-0.5,1730147596914816512,,,,,,,,,,,,,,0.01421031,-0.84421694,-0.53579551,0.00437055,-55.12935638,0.00066717,0.01728339,0.02719416,0.00105264,0.00259311,0.00629780,-0.00379548,-0.15396713,0.27067319,9.77453709,-0.07720985,-0.00978875,-0.00130367,0.07675728,-0.28046194,-9.77584076,0.43333817,0.00000000
S,-0.5,1730147596915570432,,-0.01573919,0.02556581,0.99463075,0.00750029,0.00646295,-0.00766795,-0.00001674,0.00002529,0.00099519,0.00000768,0.00000915,-0.00000889,,,,,,,,,,,,,,,,,,,,,,,
S,-0.5,1730147596916572416,,-0.01357546,0.02846526,0.99376822,0.00911576,0.01188226,-0.00440783,-0.00001329,0.00002754,0.00099354,0.00000965,0.00000833,-0.00000529,,,,,,,,,,,,,,,,,,,,,,,
S,-0.5,1730147596916818176,,,,,,,,,,,,,,0.01421934,-0.84421325,-0.53580111,0.00436522,-55.12935638,0.00066717,0.01728339,0.02719416,0.00105264,0.00700877,0.01218233,-0.00978850,-0.17233528,0.26700228,9.75885296,-0.09539352,-0.01355249,-0.01698399,0.07694177,-0.28055477,-9.77583694,0.43333817,0.00000000
S,-0.5,1730147596917573632,,-0.01543927,0.02564189,0.99649465,0.01397172,0.01725014,-0.00900652,-0.00001441,0.00002708,0.00099572,0.00001360,0.00001800,-0.00000713,,,,,,,,,,,,,,,,,,,,,,,
S,-0.5,1730147596918574080,,-0.01676389,0.02549251,0.99706662,0.01800194,0.02122935,-0.00900084,-0.00001712,0.00002462,0.00099783,0.00001882,0.00002222,-0.00001047,,,,,,,,,,,,,,,,,,,,,,,
S,-0.5,1730147596918819072,,,,,,,,,,,,,,0.01423200,-0.84420830,-0.53580862,0.00436236,-55.55212784,0.00066717,0.01728339,0.02719416,0.00105264,0.01137839,0.00595707,-0.00841922,-0.13029903,0.27005267,9.74333286,-0.05317484,-0.01068044,-0.03249741,0.07712419,-0.28073311,-9.77583027,0.01056671,0.00000000
S,-0.5,1730147596919574016,,-0.01558881,0.02735914,0.99733102,0.01313648,0.02154595,-0.01159785,-0.00001622,0.00002697,0.00099747,0.00001530,0.00002276,-0.00001112,,,,,,,,,,,,,,,,,,,,,,,
S,-0.5,1730147596920572928,,-0.01501078,0.02686058,0.99842691,0.01487962,0.02104319,-0.01449263,-0.00001474,0.00002755,0.00099831,0.00001301,0.00002124,-0.00001479,,,,,,,,,,,,,,,,,,,,,,,
S,-0.5,1730147596920818176,,,,,,,,,,,,,,0.01425244,-0.84420222,-0.53581768,0.00435987,-55.55212784,0.00066717,0.01728339,0.02719416,0.00105264,0.02054704,0.01983738,-0.01359444,-0.16785888,0.24145322,9.78537560,-0.09047634,-0.03959028,0.00955582,0.07738254,-0.28104350,-9.77581978,0.01056671,0.00000000
S,-0.5,1730147596921575680,,-0.01766730,0.02783927,0.99739009,0.01564440,0.02429354,-0.01324313,-0.00001700,0.00002750,0.00099793,0.00001606,0.00002354,-0.00001439,,,,,,,,,,,,,,,,,,,,,,,
S,-0.5,1730147596922577664,,-0.01667921,0.02741260,0.99628383,0.01738924,0.02546379,-0.01504231,-0.00001770,0.00002780,0.00099615,0.00001732,0.00002629,-0.00001432,,,,,,,,,,,,,,,,,,,,,,,
S,-0.5,1730147596922819840,,,,,,,,,,,,,,0.01427777,-0.84419364,-0.53583062,0.00435277,-55.55212784,0.00066717,0.01728339,0.02719416,0.00105264,0.01474582,0.01885769,-0.01792210,-0.14456615,0.27012545,9.79009628,-0.06679645,-0.01126063,0.01428986,0.07776970,-0.28138608,-9.77580643,0.01056671,0.00000000
S,-0.5,1730147596923579136,,-0.01622453,0.02671156,0.99527401,0.01852296,0.02941174,-0.01768822,-0.00001599,0.00002670,0.00099511,0.00001887,0.00002907,-0.00001778,,,,,,,,,,,,,,,,,,,,,,,
S,-0.5,1730147596924580096,,-0.01599192,0.02623575,0.99718237,0.02403838,0.02591359,-0.01939885,-0.00001589,0.00002610,0.00099651,0.00002340,0.00002781,-0.00001993,,,,,,,,,,,,,,,,,,,,,,,
S,-0.5,1730147596924820736,,,,,,,,,,,,,,0.01430357,-0.84418404,-0.53584516,0.00434352,-55.55212784,0.00066717,0.01728339,0.02719416,0.00105264,0.01904731,0.02390814,-0.01744645,-0.17362246,0.27264211,9.76894188,-0.09542476,-0.00907159,-0.00685215,0.07819770,-0.28171369,-9.77579403,0.01056671,0.00000000
S,-0.5,1730147596925580032,,-0.01724379,0.02806797,0.99727511,0.02290992,0.02517722,-0.01654837,-0.00001694,0.00002758,0.00099787,0.00002487,0.00002420,-0.00001761,,,,,,,,,,,,,,,,,,,,,,,
S,-0.5,1730147596926579200,,-0.01849727,0.02634087,1.00050998,0.02310958,0.02729251,-0.01812358,-0.00001867,0.00002724,0.00099995,0.00002271,0.00002667,-0.00001693,,,,,,,,,,,,,,,,,,,,,,,
S,-0.5,1730147596926820096,,,,,,,,,,,,,,0.01433552,-0.84417295,-0.53586179,0.00433424,-55.55212784,0.00066717,0.01728339,0.02719416,0.00105264,0.02512880,0.02542820,-0.02305904,-0.15582126,0.25594792,9.77246571,-0.07712985,-0.02619445,-0.00331211,0.07869142,-0.28214237,-9.77577782,0.01056671,0.00000000
S,-0.5,1730147596927577600,,-0.01694691,0.02628533,0.99952132,0.02211790,0.03028523,-0.01562881,-0.00001763,0.00002575,0.00100073,0.00002236,0.00003041,-0.00001658,,,,,,,,,,,,,,,,,,,,,,,
S,-0.5,1730147596928579584,,-0.01665346,0.02843586,0.99927747,0.02359585,0.03193407,-0.01156280,-0.00001621,0.00002803,0.00099901,0.00002301,0.00003259,-0.00001151,,,,,,,,,,,,,,,,,,,,,,,
S,-0.5,1730147596928822272,,,,,,,,,,,,,,0.01436986,-0.84416115,-0.53587955,0.00432622,-55.55212784,0.00066717,0.01728339,0.02719416,0.00105264,0.02444576,0.02429615,-0.02005880,-0.18307257,0.26711059,9.80617714,-0.10388286,-0.01551300,0.03041744,0.07918970,-0.28262359,-9.77575970,0.01056671,0.00000000
S,-0.5,1730147596929581056,,-0.01639516,0.02903058,0.99885428,0.02514089,0.03067906,-0.01243587,-0.00001635,0.00002961,0.00099885,0.00002533,0.00003143,-0.00001098,,,,,,,,,,,,,,,,,,,,,,,
S,-0.5,1730147596930581504,,-0.01667541,0.02747485,0.99820828,0.02533449,0.02799815,-0.01261771,-0.00001654,0.00002795,0.00099819,0.00002579,0.00002809,-0.00001286,,,,,,,,,,,,,,,,,,,,,,,
S,-0.5,1730147596930822656,,,,,,,,,,,,,,0.01440530,-0.84415162,-0.53589368,0.00431615,-55.55212784,0.00066717,0.01728339,0.02719416,0.00105264,0.02474333,0.03020945,-0.01463620,-0.15899965,0.27485597,9.79691315,-0.07926730,-0.00824574,0.02117157,0.07973235,-0.28310171,-9.77574158,0.01056671,0.00000000
S,-0.5,1730147596931581440,,-0.01569121,0.02641221,0.99924392,0.02750086,0.02798638,-0.01187524,-0.00001596,0.00002611,0.00099885,0.00002717,0.00002714,-0.00001207,,,,,,,,,,,,,,,,,,,,,,,
S,-0.5,1730147596932580352,,-0.01517590,0.02841867,1.00020945,0.02859649,0.02670169,-0.01468919,-0.00001496,0.00002772,0.00100036,0.00002909,0.00002693,-0.00001394,,,,,,,,,,,,,,,,,,,,,,,
S,-0.5,1730147596932821248,,,,,,,,,,,,,,0.01444241,-0.84414315,-0.53590608,0.00430633,-55.55212784,0.00066717,0.01728339,0.02719416,0.00105264,0.02752276,0.02570813,-0.01599135,-0.16222164,0.27406505,9.78891087,-0.08193398,-0.00954515,0.01318836,0.08028767,-0.28361019,-9.77572250,0.01056671,0.00000000
S,-0.5,1730147596933578240,,-0.01754915,0.03100504,1.00072408,0.02498039,0.02744706,-0.01104105,-0.00001695,0.00003117,0.00100094,0.00002599,0.00002690,-0.00001260,,,,,,,,,,,,,,,,,,,,,,,
S,-0.5,1730147596934579968,,-0.01839972,0.02946876,1.00105941,0.02244376,0.02714630,-0.00986622,-0.00001900,0.00003057,0.00100116,0.00002175,0.00002744,-0.00000892,,,,,,,,,,,,,,,,,,,,,,,
S,-0.5,1730147596934829056,,,,,,,,,,,,,,0.01448058,-0.84413397,-0.53591955,0.00430051,-55.55212784,0.00066717,0.01728339,0.02719416,0.00105264,0.03081864,0.02455373,-0.01707035,-0.14667048,0.27180132,9.81021595,-0.06588209,-0.01237652,0.03451443,0.08078839,-0.28417784,-9.77570152,0.01056671,0.00000000
S,-0.5,1730147596935586816,,-0.01757788,0.02998569,1.00058234,0.02368331,0.03007830,-0.01070885,-0.00001800,0.00002940,0.00100078,0.00002265,0.00002945,-0.00001018,,,,,,,,,,,,,,,,,,,,,,,
S,-0.5,1730147596936592640,,-0.01656345,0.03002673,0.99933684,0.02327142,0.02748106,-0.01080281,-0.00001649,0.00003018,0.00099941,0.00002374,0.00002889,-0.00001105,,,,,,,,,,,,,,,,,,,,,,,
S,-0.5,1730147596936835328,,,,,,,,,,,,,,0.01451685,-0.84412587,-0.53593135,0.00429391,-55.55212784,0.00066717,0.01728339,0.02719416,0.00105264,0.02348526,0.02506056,-0.01204719,-0.18633261,0.29979721,9.81804848,-0.10505092,0.01509088,0.04236698,0.08128169,-0.28470632,-9.77568150,0.01056671,0.00000000
S,-0.5,1730147596937598208,,-0.01584822,0.02928230,1.00052166,0.02186115,0.02964026,-0.00715666,-0.00001566,0.00002943,0.00099991,0.00002199,0.00002842,-0.00000785,,,,,,,,,,,,,,,,,,,,,,,
S,-0.5,1730147596938602752,,-0.01736677,0.03085647,1.00091290,0.02348180,0.02309326,-0.01277982,-0.00001686,0.00003033,0.00100122,0.00002274,0.00002497,-0.00001060,,,,,,,,,,,,,,,,,,,,,,,
S,-0.5,1730147596938840320,,,,,,,,,,,,,,0.01455139,-0.84411860,-0.53594196,0.00428507,-55.55212784,0.00066717,0.01728339,0.02719416,0.00105264,0.02547246,0.02650860,-0.01418272,-0.16167367,0.29600304,9.80087662,-0.07988037,0.01082024,0.02521324,0.08179329,-0.28518280,-9.77566338,0.01056671,0.00000000
S,-0.5,1730147596939607040,,-0.01791467,0.03041543,1.00178468,0.02132155,0.02445646,-0.01437655,-0.00001830,0.00003100,0.00100175,0.00002223,0.00002212,-0.00001588,,,,,,,,,,,,,,,,,,,,,,,
S,-0.5,1730147596940610304,,-0.01628596,0.03061447,0.99962711,0.02063479,0.02043585,-0.01142632,-0.00001676,0.00003044,0.00100030,0.00002007,0.00002160,-0.00001247,,,,,,,,,,,,,,,,,,,,,,,
S,-0.5,1730147596940843776,,,,,,,,,,,,,,0.01458569,-0.84411085,-0.53595328,0.00427753,-55.55212784,0.00066717,0.01728339,0.02719416,0.00105264,0.02447008,0.02259245,-0.01372631,-0.16536872,0.29747060,9.81860256,-0.08308748,0.01180190,0.04295635,0.08228124,-0.28566870,-9.77564621,0.01056671,0.00000000
S,-0.5,1730147596941613056,,-0.01652220,0.03072933,0.99942356,0.01880363,0.01991245,-0.00684721,-0.00001596,0.00003077,0.00099877,0.00001892,0.00001873,-0.00000674,,,,,,,,,,,,,,,,,,,,,,,
S,-0.5,1730147596942614784,,-0.01684135,0.03172498,0.99937725,0.02068262,0.01831942,-0.00744213,-0.00001686,0.00003158,0.00099932,0.00001976,0.00001844,-0.00000588,,,,,,,,,,,,,,,,,,,,,,,
S,-0.5,1730147596942845696,,,,,,,,,,,,,,0.01461649,-0.84410274,-0.53596526,0.00427207,-55.55212784,0.00066717,0.01728339,0.02719416,0.00105264,0.02180359,0.01922263,-0.01559936,-0.16432251,0.29849231,9.80955887,-0.08162411,0.01237366,0.03392982,0.08269840,-0.28611866,-9.77562904,0.01056671,0.00000000
S,-0.5,1730147596943615744,,-0.01476825,0.03007917,1.00012434,0.01777071,0.01915139,-0.00553961,-0.00001525,0.00003070,0.00099997,0.00001890,0.00001849,-0.00000607,,,,,,,,,,,,,,,,,,,,,,,
S,-0.5,1730147596944615680,,-0.01416297,0.02999949,1.00032020,0.01768091,0.01918369,-0.00423325,-0.00001361,0.00002949,0.00100052,0.00001677,0.00001944,-0.00000386,,,,,,,,,,,,,,,,,,,,,,,
S,-0.5,1730147596944845824,,,,,,,,,,,,,,0.01464427,-0.84409589,-0.53597528,0.00426860,-55.55212784,0.00066717,0.01728339,0.02719416,0.00105264,0.02149001,0.01606462,-0.00900523,-0.16532578,0.30970097,9.79998970,-0.08227538,0.02316114,0.02437592,0.08305039,-0.28653982,-9.77561378,0.01056671,0.00000000
S,-0.5,1730147596945614848,,-0.01698631,0.03211672,0.99906588,0.01434951,0.01818493,-0.00217166,-0.00001628,0.00003171,0.00099936,0.00001493,0.00001838,-0.00000213,,,,,,,,,,,,,,,,,,,,,,,
S,-0.5,1730147596946616576,,-0.01563202,0.03285796,1.00155377,0.00976207,0.01651115,-0.00568812,-0.00001678,0.00003340,0.00100070,0.00000954,0.00001650,-0.00000439,,,,,,,,,,,,,,,,,,,,,,,
S,-0.5,1730147596946853632,,,,,,,,,,,,,,0.01467006,-0.84409136,-0.53598171,0.00426522,-55.55212784,0.00066717,0.01728339,0.02719416,0.00105264,0.01850198,0.01706500,-0.00699377,-0.13349918,0.28919730,9.81177235,-0.05012033,0.00226787,0.03617287,0.08337884,-0.28692943,-9.77559948,0.01056671,0.00000000
S,-0.5,1730147596947623680,,-0.01434717,0.03144635,1.00155234,0.00947648,0.01740861,-0.00550590,-0.00001415,0.00003194,0.00100234,0.00000807,0.00001671,-0.00000666,,,,,,,,,,,,,,,,,,,,,,,
S,-0.5,1730147596948629760,,-0.01479413,0.03171542,1.00241804,0.00638062,0.01506836,-0.00323626,-0.00001430,0.00003122,0.00100226,0.00000685,0.00001578,-0.00000359,,,,,,,,,,,,,,,,,,,,,,,
S,-0.5,1730147596948860160,,,,,,,,,,,,,,0.01469101,-0.84408736,-0.53598762,0.00425993,-55.55212784,0.00066717,0.01728339,0.02719416,0.00105264,0.01126679,0.01411971,-0.00752175,-0.16452253,0.32751030,9.81353951,-0.08083464,0.04029104,0.03795147,0.08368789,-0.28721926,-9.77558804,0.01056671,0.00000000
S,-0.5,1730147596949635840,,-0.01656254,0.03057976,1.00304103,0.00581415,0.01008278,-0.00440582,-0.00001638,0.00003087,0.00100320,0.00000493,0.00001024,-0.00000347,,,,,,,,,,,,,,,,,,,,,,,
S,-0.5,1730147596950640896,,-0.01606383,0.02950087,1.00033796,0.00725268,0.00358693,0.00009292,-0.00001672,0.00002934,0.00100103,0.00000681,0.00000318,-0.00000110,,,,,,,,,,,,,,,,,,,,,,,
S,-0.5,1730147596950865152,,,,,,,,,,,,,,0.01470679,-0.84408337,-0.53599334,0.00425353,-55.55212784,0.00066717,0.01728339,0.02719416,0.00105264,0.00858385,0.01340159,-0.00671939,-0.14027292,0.30613521,9.82881641,-0.05631191,0.01872313,0.05323696,0.08396100,-0.28741208,-9.77557945,0.01056671,0.00000000
S,-0.5,1730147596951645184,,-0.01706450,0.02941006,0.99950188,0.00741970,0.00589590,0.00096381,-0.00001672,0.00002908,0.00099879,0.00000785,0.00000341,0.00000224,,,,,,,,,,,,,,,,,,,,,,,
S,-0.5,1730147596952648448,,-0.01543540,0.03024445,1.00126159,0.00465271,0.00491312,-0.00196006,-0.00001605,0.00003006,0.00100068,0.00000521,0.00000583,-0.00000115,,,,,,,,,,,,,,,,,,,,,,,
S,-0.5,1730147596952868352,,,,,,,,,,,,,,0.01471785,-0.84408039,-0.53599787,0.00425204,-55.55212784,0.00066717,0.01728339,0.02719416,0.00105264,0.00854265,0.00080256,-0.00422551,-0.16393532,0.28768361,9.81672573,-0.07983231,0.00010499,0.04115200,0.08410301,-0.28757861,-9.77557373,0.01056671,0.00000000
S,-0.5,1730147596953650944,,-0.01643787,0.03155249,1.00239539,0.00170417,0.00677964,0.00539370,-0.00001574,0.00003158,0.00100275,0.00000136,0.00000613,0.00000313,,,,,,,,,,,,,,,,,,,,,,,
S,-0.5,1730147596954652928,,-0.01912089,0.02998868,1.00132358,0.00780503,0.00444845,0.00243980,-0.00001895,0.00003069,0.00100188,0.00000576,0.00000547,0.00000532,,,,,,,,,,,,,,,,,,,,,,,
S,-0.5,1730147596954870016,,,,,,,,,,,,,,0.01472554,-0.84407800,-0.53600138,0.00425433,-55.55212784,0.00066717,0.01728339,0.02719416,0.00105264,0.00694026,0.00344901,-0.00428037,-0.15739794,0.29482433,9.81327724,-0.07325093,0.00709510,0.03770828,0.08414701,-0.28772923,-9.77556896,0.01056671,0.00000000
S,-0.5,1730147596955653888,,-0.01974554,0.02955429,1.00137854,0.00902463,0.00217795,0.00194027,-0.00002049,0.00002914,0.00100103,0.00001075,0.00000185,0.00000109,,,,,,,,,,,,,,,,,,,,,,,
S,-0.5,1730147596956653824,,-0.01771942,0.02831122,1.00081789,0.00597961,-0.00761216,0.00327305,-0.00001829,0.00002840,0.00100094,0.00000692,-0.00000656,0.00000287,,,,,,,,,,,,,,,,,,,,,,,
S,-0.5,1730147596956870144,,,,,,,,,,,,,,0.01473339,-0.84407735,-0.53600216,0.00425543,-55.55212784,0.00066717,0.01728339,0.02719416,0.00105264,0.00748966,0.00308850,0.00218851,-0.18585999,0.30096158,9.82507801,-0.10164846,0.01309144,0.04951286,0.08421153,-0.28787014,-9.77556515,0.01056671,0.00000000
S,-0.5,1730147596957653248,,-0.01603701,0.02869959,0.99869227,0.00541287,-0.00090696,0.00407050,-0.00001570,0.00002823,0.00099890,0.00000455,-0.00000524,0.00000435,,,,,,,,,,,,,,,,,,,,,,,
S,-0.5,1730147596958654976,,-0.01425068,0.02954935,0.99725598,0.00125424,-0.00281491,0.00592357,-0.00001404,0.00002952,0.00099684,0.00000183,-0.00000033,0.00000584,,,,,,,,,,,,,,,,,,,,,,,
S,-0.5,1730147596958871808,,,,,,,,,,,,,,0.01473863,-0.84407771,-0.53600132,0.00426223,-54.93382263,0.00066717,0.01728339,0.02719416,0.00105264,0.00865272,-0.00893376,-0.00025688,-0.17932120,0.27849406,9.81584167,-0.09516739,-0.00953403,0.04028130,0.08415381,-0.28802809,-9.77556038,0.62887192,0.00000000
S,-0.5,1730147596959661824,,-0.01326569,0.03120069,0.99740225,0.00483557,-0.00188080,0.00680154,-0.00001288,0.00003117,0.00099692,0.00000286,-0.00000266,0.00000723,,,,,,,,,,,,,,,,,,,,,,,
S,-0.5,1730147596960667904,,-0.01500256,0.03110639,0.99893057,0.00144413,-0.00420434,0.00967050,-0.00001437,0.00003165,0.00099870,0.00000320,-0.00000348,0.00000943,,,,,,,,,,,,,,,,,,,,,,,
S,-0.5,1730147596960878080,,,,,,,,,,,,,,0.01474066,-0.84407824,-0.53600037,0.00427044,-54.93382263,0.00066717,0.01728339,0.02719416,0.00105264,0.00356108,-0.00271156,0.00271196,-0.13768655,0.28947616,9.77566528,-0.05364727,0.00132847,0.00010777,0.08403928,-0.28814769,-9.77555752,0.62887192,0.00000000
S,-0.5,1730147596961672960,,-0.01676951,0.03034930,0.99948317,-0.00326776,-0.00282541,0.00974266,-0.00001700,0.00003046,0.00099987,-0.00000349,-0.00000382,0.00001064,,,,,,,,,,,,,,,,,,,,,,,
S,-0.5,1730147596962677504,,-0.01650395,0.03099112,1.00049376,-0.00199592,-0.00379407,0.00657900,-0.00001711,0.00003063,0.00100049,-0.00000373,-0.00000318,0.00000718,,,,,,,,,,,,,,,,,,,,,,,
S,-0.5,1730147596962882304,,,,,,,,,,,,,,0.01474193,-0.84408057,-0.53599662,0.00427640,-54.93382263,0.00066717,0.01728339,0.02719416,0.00105264,0.00493195,-0.00586248,0.00629994,-0.14095478,0.31037256,9.79389668,-0.05700192,0.02214110,0.01834106,0.08395286,-0.28823146,-9.77555561,0.62887192,0.00000000
S,-0.5,1730147596963681024,,-0.01617283,0.02985064,1.00060117,0.00197849,-0.00884379,0.00923908,-0.00001615,0.00003026,0.00100090,0.00000166,-0.00000823,0.00000775,,,,,,,,,,,,,,,,,,,,,,,
S,-0.5,1730147596964683520,,-0.01784736,0.02949200,0.99886137,0.00192776,-0.00646494,0.00597096,-0.00001744,0.00002919,0.00099921,0.00000320,-0.00000850,0.00000741,,,,,,,,,,,,,,,,,,,,,,,
